<?xml version="1.0" encoding="UTF-8"?>
<ODM xmlns="http://www.cdisc.org/ns/odm/v1.3" xmlns:def="http://www.cdisc.org/ns/def/v2.0" FileType="Snapshot">
  <Study OID="STU.001">
    <GlobalVariables>
      <StudyName>Portfolio Clinical Trial</StudyName>
      <StudyDescription>End-to-End CDISC Pipeline Automation</StudyDescription>
      <ProtocolName>CDISC-001</ProtocolName>
    </GlobalVariables>
    <MetaDataVersion OID="MDV.001" Name="Study Metadata" def:DefineVersion="2.0.0">
<ItemGroupDef OID="IG.ADAE" Name="ADAE" Repeating="Yes" IsReferenceData="No">
<Description><TranslatedText>ADAEDataset (ADAM)</TranslatedText></Description>
<ItemRef ItemOID="IT.ADAE.STUDYID" Mandatory="No"/>
<ItemRef ItemOID="IT.ADAE.USUBJID" Mandatory="No"/>
<ItemRef ItemOID="IT.ADAE.SUBJID" Mandatory="No"/>
<ItemRef ItemOID="IT.ADAE.SEX" Mandatory="No"/>
<ItemRef ItemOID="IT.ADAE.TRT01A" Mandatory="No"/>
<ItemRef ItemOID="IT.ADAE.TRTSDT" Mandatory="No"/>
<ItemRef ItemOID="IT.ADAE.TRTEDT" Mandatory="No"/>
<ItemRef ItemOID="IT.ADAE.AGE" Mandatory="No"/>
<ItemRef ItemOID="IT.ADAE.AESEQ" Mandatory="No"/>
<ItemRef ItemOID="IT.ADAE.AETERM" Mandatory="No"/>
<ItemRef ItemOID="IT.ADAE.AEDECOD" Mandatory="No"/>
<ItemRef ItemOID="IT.ADAE.AEREL" Mandatory="No"/>
<ItemRef ItemOID="IT.ADAE.AESEV" Mandatory="No"/>
<ItemRef ItemOID="IT.ADAE.AEOUT" Mandatory="No"/>
<ItemRef ItemOID="IT.ADAE.AESER" Mandatory="No"/>
<ItemRef ItemOID="IT.ADAE.AESTDT" Mandatory="No"/>
<ItemRef ItemOID="IT.ADAE.AEENDT" Mandatory="No"/>
<ItemRef ItemOID="IT.ADAE.ASTDY" Mandatory="No"/>
<ItemRef ItemOID="IT.ADAE.TRTEMFL" Mandatory="No" MethodOID="MT.ADAE.TRTEMFL"/>
<ItemRef ItemOID="IT.ADAE.AOCCFL" Mandatory="No" MethodOID="MT.ADAE.AOCCFL"/>
      </ItemGroupDef>
<ItemGroupDef OID="IG.ADLB" Name="ADLB" Repeating="Yes" IsReferenceData="No">
<Description><TranslatedText>ADLBDataset (ADAM)</TranslatedText></Description>
<ItemRef ItemOID="IT.ADLB.STUDYID" Mandatory="No"/>
<ItemRef ItemOID="IT.ADLB.USUBJID" Mandatory="No"/>
<ItemRef ItemOID="IT.ADLB.PARAMCD" Mandatory="No"/>
<ItemRef ItemOID="IT.ADLB.PARAM" Mandatory="No"/>
<ItemRef ItemOID="IT.ADLB.TRT01A" Mandatory="No"/>
<ItemRef ItemOID="IT.ADLB.TRTSDT" Mandatory="No"/>
<ItemRef ItemOID="IT.ADLB.TRTEDT" Mandatory="No"/>
<ItemRef ItemOID="IT.ADLB.LBSTRESU" Mandatory="No"/>
<ItemRef ItemOID="IT.ADLB.AVAL" Mandatory="No"/>
<ItemRef ItemOID="IT.ADLB.AVISIT" Mandatory="No"/>
<ItemRef ItemOID="IT.ADLB.AVISITN" Mandatory="No"/>
<ItemRef ItemOID="IT.ADLB.SRCDOM" Mandatory="No"/>
<ItemRef ItemOID="IT.ADLB.SRCVAR" Mandatory="No"/>
<ItemRef ItemOID="IT.ADLB.SRCSEQ" Mandatory="No"/>
<ItemRef ItemOID="IT.ADLB.ASTDT" Mandatory="No"/>
<ItemRef ItemOID="IT.ADLB.ASTDY" Mandatory="No"/>
<ItemRef ItemOID="IT.ADLB.BASE" Mandatory="No" MethodOID="MT.ADLB.BASELINE"/>
<ItemRef ItemOID="IT.ADLB.ABLFL" Mandatory="No" MethodOID="MT.ADLB.BASELINE"/>
<ItemRef ItemOID="IT.ADLB.CHG" Mandatory="No" MethodOID="MT.ADLB.BASELINE"/>
<ItemRef ItemOID="IT.ADLB.LBNRIND" Mandatory="No" MethodOID="MT.ADLB.LBNRIND"/>
      </ItemGroupDef>
<ItemGroupDef OID="IG.ADSL" Name="ADSL" Repeating="No" IsReferenceData="No">
<Description><TranslatedText>ADSLDataset (ADAM)</TranslatedText></Description>
<ItemRef ItemOID="IT.ADSL.STUDYID" Mandatory="No"/>
<ItemRef ItemOID="IT.ADSL.USUBJID" Mandatory="No"/>
<ItemRef ItemOID="IT.ADSL.SUBJID" Mandatory="No"/>
<ItemRef ItemOID="IT.ADSL.SITEID" Mandatory="No"/>
<ItemRef ItemOID="IT.ADSL.SEX" Mandatory="No"/>
<ItemRef ItemOID="IT.ADSL.RACE" Mandatory="No"/>
<ItemRef ItemOID="IT.ADSL.TRT01P" Mandatory="No" MethodOID="MT.ADSL.TRT01P"/>
<ItemRef ItemOID="IT.ADSL.TRT01A" Mandatory="No" MethodOID="MT.ADSL.TRT01A"/>
<ItemRef ItemOID="IT.ADSL.ITTFL" Mandatory="No" MethodOID="MT.ADSL.ITTFL"/>
<ItemRef ItemOID="IT.ADSL.SAFFL" Mandatory="No" MethodOID="MT.ADSL.SAFFL"/>
<ItemRef ItemOID="IT.ADSL.BRTHDT" Mandatory="No"/>
<ItemRef ItemOID="IT.ADSL.RFICDT" Mandatory="No"/>
<ItemRef ItemOID="IT.ADSL.TRTSDT" Mandatory="No"/>
<ItemRef ItemOID="IT.ADSL.TRTEDT" Mandatory="No"/>
<ItemRef ItemOID="IT.ADSL.EOSDT" Mandatory="No" MethodOID="MT.ADSL.EOSDT"/>
<ItemRef ItemOID="IT.ADSL.AGE" Mandatory="No" MethodOID="MT.ADSL.AGE"/>
<ItemRef ItemOID="IT.ADSL.TRTDURD" Mandatory="No"/>
      </ItemGroupDef>
<ItemGroupDef OID="IG.ADTTE" Name="ADTTE" Repeating="Yes" IsReferenceData="No">
<Description><TranslatedText>ADTTEDataset (ADAM)</TranslatedText></Description>
<ItemRef ItemOID="IT.ADTTE.STUDYID" Mandatory="No"/>
<ItemRef ItemOID="IT.ADTTE.USUBJID" Mandatory="No"/>
<ItemRef ItemOID="IT.ADTTE.PARAMCD" Mandatory="No"/>
<ItemRef ItemOID="IT.ADTTE.PARAM" Mandatory="No"/>
<ItemRef ItemOID="IT.ADTTE.TRT01P" Mandatory="No"/>
<ItemRef ItemOID="IT.ADTTE.TRT01A" Mandatory="No"/>
<ItemRef ItemOID="IT.ADTTE.TRTSDT" Mandatory="No"/>
<ItemRef ItemOID="IT.ADTTE.TRTEDT" Mandatory="No"/>
<ItemRef ItemOID="IT.ADTTE.EOSDT" Mandatory="No"/>
<ItemRef ItemOID="IT.ADTTE.EVENTDT" Mandatory="No"/>
<ItemRef ItemOID="IT.ADTTE.CNSR" Mandatory="No" MethodOID="MT.ADTTE.TTFAEV"/>
<ItemRef ItemOID="IT.ADTTE.AVAL" Mandatory="No" MethodOID="MT.ADTTE.TTFAEV"/>
      </ItemGroupDef>
<ItemGroupDef OID="IG.ADVS" Name="ADVS" Repeating="Yes" IsReferenceData="No">
<Description><TranslatedText>ADVSDataset (ADAM)</TranslatedText></Description>
<ItemRef ItemOID="IT.ADVS.STUDYID" Mandatory="No"/>
<ItemRef ItemOID="IT.ADVS.USUBJID" Mandatory="No"/>
<ItemRef ItemOID="IT.ADVS.TRT01A" Mandatory="No"/>
<ItemRef ItemOID="IT.ADVS.TRTSDT" Mandatory="No"/>
<ItemRef ItemOID="IT.ADVS.TRTEDT" Mandatory="No"/>
<ItemRef ItemOID="IT.ADVS.PARAMCD" Mandatory="No"/>
<ItemRef ItemOID="IT.ADVS.PARAM" Mandatory="No"/>
<ItemRef ItemOID="IT.ADVS.AVAL" Mandatory="No"/>
<ItemRef ItemOID="IT.ADVS.AVISIT" Mandatory="No"/>
<ItemRef ItemOID="IT.ADVS.AVISITN" Mandatory="No"/>
<ItemRef ItemOID="IT.ADVS.SRCDOM" Mandatory="No"/>
<ItemRef ItemOID="IT.ADVS.SRCVAR" Mandatory="No"/>
<ItemRef ItemOID="IT.ADVS.SRCSEQ" Mandatory="No"/>
<ItemRef ItemOID="IT.ADVS.ASTDT" Mandatory="No"/>
<ItemRef ItemOID="IT.ADVS.ASTDY" Mandatory="No"/>
<ItemRef ItemOID="IT.ADVS.BASE" Mandatory="No" MethodOID="MT.ADVS.BASELINE"/>
<ItemRef ItemOID="IT.ADVS.ABLFL" Mandatory="No" MethodOID="MT.ADVS.BASELINE"/>
<ItemRef ItemOID="IT.ADVS.CHG" Mandatory="No" MethodOID="MT.ADVS.BASELINE"/>
      </ItemGroupDef>
<ItemGroupDef OID="IG.QC_REPORT" Name="QC_REPORT" Repeating="Yes" IsReferenceData="No">
<Description><TranslatedText>QC_REPORTDataset (ADAM)</TranslatedText></Description>
<ItemRef ItemOID="IT.QC_REPORT.CHECK_ID" Mandatory="No"/>
<ItemRef ItemOID="IT.QC_REPORT.DOMAIN" Mandatory="No"/>
<ItemRef ItemOID="IT.QC_REPORT.RULE" Mandatory="No"/>
<ItemRef ItemOID="IT.QC_REPORT.STATUS" Mandatory="No"/>
<ItemRef ItemOID="IT.QC_REPORT.N_FAIL" Mandatory="No"/>
      </ItemGroupDef>
<ItemGroupDef OID="IG.AE" Name="AE" Repeating="Yes" IsReferenceData="No">
<Description><TranslatedText>AEDataset (SDTM)</TranslatedText></Description>
<ItemRef ItemOID="IT.AE.STUDYID" Mandatory="No"/>
<ItemRef ItemOID="IT.AE.DOMAIN" Mandatory="No"/>
<ItemRef ItemOID="IT.AE.USUBJID" Mandatory="No"/>
<ItemRef ItemOID="IT.AE.AESEQ" Mandatory="No"/>
<ItemRef ItemOID="IT.AE.AETERM" Mandatory="No"/>
<ItemRef ItemOID="IT.AE.AEDECOD" Mandatory="No"/>
<ItemRef ItemOID="IT.AE.AEREL" Mandatory="No"/>
<ItemRef ItemOID="IT.AE.AESEV" Mandatory="No"/>
<ItemRef ItemOID="IT.AE.AEOUT" Mandatory="No"/>
<ItemRef ItemOID="IT.AE.AESER" Mandatory="No"/>
<ItemRef ItemOID="IT.AE.AESTDTC" Mandatory="No"/>
<ItemRef ItemOID="IT.AE.AEENDTC" Mandatory="No"/>
      </ItemGroupDef>
<ItemGroupDef OID="IG.CM" Name="CM" Repeating="Yes" IsReferenceData="No">
<Description><TranslatedText>CMDataset (SDTM)</TranslatedText></Description>
<ItemRef ItemOID="IT.CM.STUDYID" Mandatory="No"/>
<ItemRef ItemOID="IT.CM.DOMAIN" Mandatory="No"/>
<ItemRef ItemOID="IT.CM.USUBJID" Mandatory="No"/>
<ItemRef ItemOID="IT.CM.CMSEQ" Mandatory="No"/>
<ItemRef ItemOID="IT.CM.CMTRT" Mandatory="No"/>
<ItemRef ItemOID="IT.CM.CMDECOD" Mandatory="No" MethodOID="MT.CM.CMDECOD"/>
<ItemRef ItemOID="IT.CM.CMDOSE" Mandatory="No"/>
<ItemRef ItemOID="IT.CM.CMDOSU" Mandatory="No"/>
<ItemRef ItemOID="IT.CM.CMSTDTC" Mandatory="No"/>
<ItemRef ItemOID="IT.CM.CMENDTC" Mandatory="No"/>
<ItemRef ItemOID="IT.CM.CMENRTPT" Mandatory="No"/>
<ItemRef ItemOID="IT.CM.CMENTPT" Mandatory="No" MethodOID="MT.CM.CMENTPT"/>
      </ItemGroupDef>
<ItemGroupDef OID="IG.DM" Name="DM" Repeating="No" IsReferenceData="No">
<Description><TranslatedText>DMDataset (SDTM)</TranslatedText></Description>
<ItemRef ItemOID="IT.DM.STUDYID" Mandatory="No"/>
<ItemRef ItemOID="IT.DM.DOMAIN" Mandatory="No"/>
<ItemRef ItemOID="IT.DM.USUBJID" Mandatory="No" MethodOID="MT.DM.USUBJID"/>
<ItemRef ItemOID="IT.DM.SUBJID" Mandatory="No"/>
<ItemRef ItemOID="IT.DM.SITEID" Mandatory="No" MethodOID="MT.DM.SITEID"/>
<ItemRef ItemOID="IT.DM.SEX" Mandatory="No"/>
<ItemRef ItemOID="IT.DM.RACE" Mandatory="No" MethodOID="MT.DM.RACE"/>
<ItemRef ItemOID="IT.DM.ARM" Mandatory="No"/>
<ItemRef ItemOID="IT.DM.ARMCD" Mandatory="No"/>
<ItemRef ItemOID="IT.DM.RFSTDTC" Mandatory="No"/>
<ItemRef ItemOID="IT.DM.RFENDTC" Mandatory="No"/>
<ItemRef ItemOID="IT.DM.RFPENDTC" Mandatory="No"/>
<ItemRef ItemOID="IT.DM.RFICDTC" Mandatory="No"/>
<ItemRef ItemOID="IT.DM.BRTHDTC" Mandatory="No"/>
      </ItemGroupDef>
<ItemGroupDef OID="IG.DS" Name="DS" Repeating="Yes" IsReferenceData="No">
<Description><TranslatedText>DSDataset (SDTM)</TranslatedText></Description>
<ItemRef ItemOID="IT.DS.STUDYID" Mandatory="No"/>
<ItemRef ItemOID="IT.DS.DOMAIN" Mandatory="No"/>
<ItemRef ItemOID="IT.DS.USUBJID" Mandatory="No"/>
<ItemRef ItemOID="IT.DS.DSCAT" Mandatory="No"/>
<ItemRef ItemOID="IT.DS.DSSCAT" Mandatory="No"/>
<ItemRef ItemOID="IT.DS.DSTERM" Mandatory="No"/>
<ItemRef ItemOID="IT.DS.DSDECOD" Mandatory="No"/>
<ItemRef ItemOID="IT.DS.EPOCH" Mandatory="No"/>
<ItemRef ItemOID="IT.DS.DSSTDTC" Mandatory="No"/>
<ItemRef ItemOID="IT.DS.DSSEQ" Mandatory="No"/>
      </ItemGroupDef>
<ItemGroupDef OID="IG.EG" Name="EG" Repeating="Yes" IsReferenceData="No">
<Description><TranslatedText>EGDataset (SDTM)</TranslatedText></Description>
<ItemRef ItemOID="IT.EG.STUDYID" Mandatory="No"/>
<ItemRef ItemOID="IT.EG.DOMAIN" Mandatory="No"/>
<ItemRef ItemOID="IT.EG.USUBJID" Mandatory="No"/>
<ItemRef ItemOID="IT.EG.EGSEQ" Mandatory="No"/>
<ItemRef ItemOID="IT.EG.VISITNUM" Mandatory="No"/>
<ItemRef ItemOID="IT.EG.VISIT" Mandatory="No"/>
<ItemRef ItemOID="IT.EG.EGTESTCD" Mandatory="No"/>
<ItemRef ItemOID="IT.EG.EGTEST" Mandatory="No"/>
<ItemRef ItemOID="IT.EG.EGORRES" Mandatory="No"/>
<ItemRef ItemOID="IT.EG.EGORRESU" Mandatory="No"/>
<ItemRef ItemOID="IT.EG.EGSTRESC" Mandatory="No"/>
<ItemRef ItemOID="IT.EG.EGSTRESN" Mandatory="No"/>
<ItemRef ItemOID="IT.EG.EGSTRESU" Mandatory="No"/>
<ItemRef ItemOID="IT.EG.EGDTC" Mandatory="No"/>
      </ItemGroupDef>
<ItemGroupDef OID="IG.EX" Name="EX" Repeating="Yes" IsReferenceData="No">
<Description><TranslatedText>EXDataset (SDTM)</TranslatedText></Description>
<ItemRef ItemOID="IT.EX.STUDYID" Mandatory="No"/>
<ItemRef ItemOID="IT.EX.DOMAIN" Mandatory="No"/>
<ItemRef ItemOID="IT.EX.USUBJID" Mandatory="No"/>
<ItemRef ItemOID="IT.EX.EXSEQ" Mandatory="No"/>
<ItemRef ItemOID="IT.EX.EXTRT" Mandatory="No"/>
<ItemRef ItemOID="IT.EX.EXDOSU" Mandatory="No"/>
<ItemRef ItemOID="IT.EX.EXSTDTC" Mandatory="No"/>
<ItemRef ItemOID="IT.EX.EXENDTC" Mandatory="No"/>
<ItemRef ItemOID="IT.EX.EXDOSE" Mandatory="No"/>
      </ItemGroupDef>
<ItemGroupDef OID="IG.LB" Name="LB" Repeating="Yes" IsReferenceData="No">
<Description><TranslatedText>LBDataset (SDTM)</TranslatedText></Description>
<ItemRef ItemOID="IT.LB.STUDYID" Mandatory="No"/>
<ItemRef ItemOID="IT.LB.DOMAIN" Mandatory="No"/>
<ItemRef ItemOID="IT.LB.USUBJID" Mandatory="No"/>
<ItemRef ItemOID="IT.LB.LBSEQ" Mandatory="No"/>
<ItemRef ItemOID="IT.LB.LBTESTCD" Mandatory="No"/>
<ItemRef ItemOID="IT.LB.LBTEST" Mandatory="No"/>
<ItemRef ItemOID="IT.LB.LBCAT" Mandatory="No"/>
<ItemRef ItemOID="IT.LB.LBORRES" Mandatory="No"/>
<ItemRef ItemOID="IT.LB.LBORRESU" Mandatory="No"/>
<ItemRef ItemOID="IT.LB.LBSTRESC" Mandatory="No"/>
<ItemRef ItemOID="IT.LB.LBSTRESU" Mandatory="No"/>
<ItemRef ItemOID="IT.LB.VISIT" Mandatory="No"/>
<ItemRef ItemOID="IT.LB.VISITNUM" Mandatory="No"/>
<ItemRef ItemOID="IT.LB.LBSTRESN" Mandatory="No"/>
<ItemRef ItemOID="IT.LB.LBDTC" Mandatory="No"/>
      </ItemGroupDef>
<ItemGroupDef OID="IG.MH" Name="MH" Repeating="Yes" IsReferenceData="No">
<Description><TranslatedText>MHDataset (SDTM)</TranslatedText></Description>
<ItemRef ItemOID="IT.MH.STUDYID" Mandatory="No"/>
<ItemRef ItemOID="IT.MH.DOMAIN" Mandatory="No"/>
<ItemRef ItemOID="IT.MH.USUBJID" Mandatory="No"/>
<ItemRef ItemOID="IT.MH.MHSEQ" Mandatory="No"/>
<ItemRef ItemOID="IT.MH.MHTERM" Mandatory="No"/>
<ItemRef ItemOID="IT.MH.MHSTDTC" Mandatory="No"/>
      </ItemGroupDef>
<ItemGroupDef OID="IG.SV" Name="SV" Repeating="Yes" IsReferenceData="No">
<Description><TranslatedText>SVDataset (SDTM)</TranslatedText></Description>
<ItemRef ItemOID="IT.SV.STUDYID" Mandatory="No"/>
<ItemRef ItemOID="IT.SV.DOMAIN" Mandatory="No"/>
<ItemRef ItemOID="IT.SV.USUBJID" Mandatory="No"/>
<ItemRef ItemOID="IT.SV.VISIT" Mandatory="No"/>
<ItemRef ItemOID="IT.SV.SVSTDTC" Mandatory="No"/>
<ItemRef ItemOID="IT.SV.SVENDTC" Mandatory="No"/>
<ItemRef ItemOID="IT.SV.VISITNUM" Mandatory="No"/>
<ItemRef ItemOID="IT.SV.VISITDY" Mandatory="No"/>
      </ItemGroupDef>
<ItemGroupDef OID="IG.VS" Name="VS" Repeating="Yes" IsReferenceData="No">
<Description><TranslatedText>VSDataset (SDTM)</TranslatedText></Description>
<ItemRef ItemOID="IT.VS.STUDYID" Mandatory="No"/>
<ItemRef ItemOID="IT.VS.DOMAIN" Mandatory="No"/>
<ItemRef ItemOID="IT.VS.USUBJID" Mandatory="No"/>
<ItemRef ItemOID="IT.VS.VSSEQ" Mandatory="No"/>
<ItemRef ItemOID="IT.VS.VISIT" Mandatory="No"/>
<ItemRef ItemOID="IT.VS.VSTESTCD" Mandatory="No"/>
<ItemRef ItemOID="IT.VS.VSTEST" Mandatory="No"/>
<ItemRef ItemOID="IT.VS.VSORRESU" Mandatory="No"/>
<ItemRef ItemOID="IT.VS.VSSTRESU" Mandatory="No"/>
<ItemRef ItemOID="IT.VS.VSORRES" Mandatory="No"/>
<ItemRef ItemOID="IT.VS.VISITNUM" Mandatory="No"/>
<ItemRef ItemOID="IT.VS.VSDTC" Mandatory="No"/>
<ItemRef ItemOID="IT.VS.VSSTRESN" Mandatory="No"/>
      </ItemGroupDef>
<ItemDef OID="IT.ADAE.AEDECOD" Name="AEDECOD" DataType="text" Length="60">
<Description><TranslatedText>AEDECOD</TranslatedText></Description>
<def:Origin Type="Derived">
<Description><TranslatedText>Derived from SDTM inputs and the versioned ADaM program.</TranslatedText></Description>
        </def:Origin>
      </ItemDef>
<ItemDef OID="IT.ADAE.AEENDT" Name="AEENDT" DataType="date" Length="8">
<Description><TranslatedText>AEENDT</TranslatedText></Description>
<def:Origin Type="Derived">
<Description><TranslatedText>Derived from SDTM inputs and the versioned ADaM program.</TranslatedText></Description>
        </def:Origin>
      </ItemDef>
<ItemDef OID="IT.ADAE.AEOUT" Name="AEOUT" DataType="text" Length="30">
<Description><TranslatedText>AEOUT</TranslatedText></Description>
<CodeListRef CodeListOID="CL.AEOUT"/>
<def:Origin Type="Derived">
<Description><TranslatedText>Derived from SDTM inputs and the versioned ADaM program.</TranslatedText></Description>
        </def:Origin>
      </ItemDef>
<ItemDef OID="IT.ADAE.AEREL" Name="AEREL" DataType="text" Length="15">
<Description><TranslatedText>AEREL</TranslatedText></Description>
<CodeListRef CodeListOID="CL.AEREL"/>
<def:Origin Type="Derived">
<Description><TranslatedText>Derived from SDTM inputs and the versioned ADaM program.</TranslatedText></Description>
        </def:Origin>
      </ItemDef>
<ItemDef OID="IT.ADAE.AESEQ" Name="AESEQ" DataType="integer" Length="8">
<Description><TranslatedText>AESEQ</TranslatedText></Description>
<def:Origin Type="Derived">
<Description><TranslatedText>Derived from SDTM inputs and the versioned ADaM program.</TranslatedText></Description>
        </def:Origin>
      </ItemDef>
<ItemDef OID="IT.ADAE.AESER" Name="AESER" DataType="text" Length="1">
<Description><TranslatedText>AESER</TranslatedText></Description>
<CodeListRef CodeListOID="CL.YN"/>
<def:Origin Type="Derived">
<Description><TranslatedText>Derived from SDTM inputs and the versioned ADaM program.</TranslatedText></Description>
        </def:Origin>
      </ItemDef>
<ItemDef OID="IT.ADAE.AESEV" Name="AESEV" DataType="text" Length="10">
<Description><TranslatedText>AESEV</TranslatedText></Description>
<CodeListRef CodeListOID="CL.AESEV"/>
<def:Origin Type="Derived">
<Description><TranslatedText>Derived from SDTM inputs and the versioned ADaM program.</TranslatedText></Description>
        </def:Origin>
      </ItemDef>
<ItemDef OID="IT.ADAE.AESTDT" Name="AESTDT" DataType="date" Length="8">
<Description><TranslatedText>AESTDT</TranslatedText></Description>
<def:Origin Type="Derived">
<Description><TranslatedText>Derived from SDTM inputs and the versioned ADaM program.</TranslatedText></Description>
        </def:Origin>
      </ItemDef>
<ItemDef OID="IT.ADAE.AETERM" Name="AETERM" DataType="text" Length="60">
<Description><TranslatedText>AETERM</TranslatedText></Description>
<def:Origin Type="Derived">
<Description><TranslatedText>Derived from SDTM inputs and the versioned ADaM program.</TranslatedText></Description>
        </def:Origin>
      </ItemDef>
<ItemDef OID="IT.ADAE.AGE" Name="AGE" DataType="integer" Length="8">
<Description><TranslatedText>AGE</TranslatedText></Description>
<def:Origin Type="Derived">
<Description><TranslatedText>Derived from SDTM inputs and the versioned ADaM program.</TranslatedText></Description>
        </def:Origin>
      </ItemDef>
<ItemDef OID="IT.ADAE.AOCCFL" Name="AOCCFL" DataType="text" Length="1">
<Description><TranslatedText>AOCCFL</TranslatedText></Description>
<CodeListRef CodeListOID="CL.Y"/>
<def:Origin Type="Derived">
<Description><TranslatedText>Derived from SDTM inputs and the versioned ADaM program.</TranslatedText></Description>
        </def:Origin>
      </ItemDef>
<ItemDef OID="IT.ADAE.ASTDY" Name="ASTDY" DataType="integer" Length="8">
<Description><TranslatedText>ASTDY</TranslatedText></Description>
<def:Origin Type="Derived">
<Description><TranslatedText>Derived from SDTM inputs and the versioned ADaM program.</TranslatedText></Description>
        </def:Origin>
      </ItemDef>
<ItemDef OID="IT.ADAE.SEX" Name="SEX" DataType="text" Length="1">
<Description><TranslatedText>SEX</TranslatedText></Description>
<CodeListRef CodeListOID="CL.SEX"/>
<def:Origin Type="Derived">
<Description><TranslatedText>Derived from SDTM inputs and the versioned ADaM program.</TranslatedText></Description>
        </def:Origin>
      </ItemDef>
<ItemDef OID="IT.ADAE.STUDYID" Name="STUDYID" DataType="text" Length="8">
<Description><TranslatedText>STUDYID</TranslatedText></Description>
<def:Origin Type="Assigned">
<Description><TranslatedText>Assigned according to the study convention.</TranslatedText></Description>
        </def:Origin>
      </ItemDef>
<ItemDef OID="IT.ADAE.SUBJID" Name="SUBJID" DataType="text" Length="20">
<Description><TranslatedText>SUBJID</TranslatedText></Description>
<def:Origin Type="Derived">
<Description><TranslatedText>Derived from SDTM inputs and the versioned ADaM program.</TranslatedText></Description>
        </def:Origin>
      </ItemDef>
<ItemDef OID="IT.ADAE.TRT01A" Name="TRT01A" DataType="text" Length="50">
<Description><TranslatedText>TRT01A</TranslatedText></Description>
<def:Origin Type="Derived">
<Description><TranslatedText>Derived from SDTM inputs and the versioned ADaM program.</TranslatedText></Description>
        </def:Origin>
      </ItemDef>
<ItemDef OID="IT.ADAE.TRTEDT" Name="TRTEDT" DataType="date" Length="8">
<Description><TranslatedText>TRTEDT</TranslatedText></Description>
<def:Origin Type="Derived">
<Description><TranslatedText>Derived from SDTM inputs and the versioned ADaM program.</TranslatedText></Description>
        </def:Origin>
      </ItemDef>
<ItemDef OID="IT.ADAE.TRTEMFL" Name="TRTEMFL" DataType="text" Length="1">
<Description><TranslatedText>TRTEMFL</TranslatedText></Description>
<CodeListRef CodeListOID="CL.Y"/>
<def:Origin Type="Derived">
<Description><TranslatedText>Derived from SDTM inputs and the versioned ADaM program.</TranslatedText></Description>
        </def:Origin>
      </ItemDef>
<ItemDef OID="IT.ADAE.TRTSDT" Name="TRTSDT" DataType="date" Length="8">
<Description><TranslatedText>TRTSDT</TranslatedText></Description>
<def:Origin Type="Derived">
<Description><TranslatedText>Derived from SDTM inputs and the versioned ADaM program.</TranslatedText></Description>
        </def:Origin>
      </ItemDef>
<ItemDef OID="IT.ADAE.USUBJID" Name="USUBJID" DataType="text" Length="40">
<Description><TranslatedText>USUBJID</TranslatedText></Description>
<def:Origin Type="Derived">
<Description><TranslatedText>Derived from SDTM inputs and the versioned ADaM program.</TranslatedText></Description>
        </def:Origin>
      </ItemDef>
<ItemDef OID="IT.ADLB.ABLFL" Name="ABLFL" DataType="text" Length="1">
<Description><TranslatedText>ABLFL</TranslatedText></Description>
<CodeListRef CodeListOID="CL.Y"/>
<def:Origin Type="Derived">
<Description><TranslatedText>Derived from SDTM inputs and the versioned ADaM program.</TranslatedText></Description>
        </def:Origin>
      </ItemDef>
<ItemDef OID="IT.ADLB.ASTDT" Name="ASTDT" DataType="date" Length="8">
<Description><TranslatedText>ASTDT</TranslatedText></Description>
<def:Origin Type="Derived">
<Description><TranslatedText>Derived from SDTM inputs and the versioned ADaM program.</TranslatedText></Description>
        </def:Origin>
      </ItemDef>
<ItemDef OID="IT.ADLB.ASTDY" Name="ASTDY" DataType="integer" Length="8">
<Description><TranslatedText>ASTDY</TranslatedText></Description>
<def:Origin Type="Derived">
<Description><TranslatedText>Derived from SDTM inputs and the versioned ADaM program.</TranslatedText></Description>
        </def:Origin>
      </ItemDef>
<ItemDef OID="IT.ADLB.AVAL" Name="AVAL" DataType="float" Length="8">
<Description><TranslatedText>AVAL</TranslatedText></Description>
<def:Origin Type="Derived">
<Description><TranslatedText>Derived from SDTM inputs and the versioned ADaM program.</TranslatedText></Description>
        </def:Origin>
      </ItemDef>
<ItemDef OID="IT.ADLB.AVISIT" Name="AVISIT" DataType="text" Length="7">
<Description><TranslatedText>AVISIT</TranslatedText></Description>
<def:Origin Type="Derived">
<Description><TranslatedText>Derived from SDTM inputs and the versioned ADaM program.</TranslatedText></Description>
        </def:Origin>
      </ItemDef>
<ItemDef OID="IT.ADLB.AVISITN" Name="AVISITN" DataType="float" Length="8">
<Description><TranslatedText>AVISITN</TranslatedText></Description>
<def:Origin Type="Derived">
<Description><TranslatedText>Derived from SDTM inputs and the versioned ADaM program.</TranslatedText></Description>
        </def:Origin>
      </ItemDef>
<ItemDef OID="IT.ADLB.BASE" Name="BASE" DataType="float" Length="8">
<Description><TranslatedText>BASE</TranslatedText></Description>
<def:Origin Type="Derived">
<Description><TranslatedText>Derived from SDTM inputs and the versioned ADaM program.</TranslatedText></Description>
        </def:Origin>
      </ItemDef>
<ItemDef OID="IT.ADLB.CHG" Name="CHG" DataType="float" Length="8">
<Description><TranslatedText>CHG</TranslatedText></Description>
<def:Origin Type="Derived">
<Description><TranslatedText>Derived from SDTM inputs and the versioned ADaM program.</TranslatedText></Description>
        </def:Origin>
      </ItemDef>
<ItemDef OID="IT.ADLB.LBNRIND" Name="LBNRIND" DataType="text" Length="10">
<Description><TranslatedText>LBNRIND</TranslatedText></Description>
<CodeListRef CodeListOID="CL.LBNRIND"/>
<def:Origin Type="Derived">
<Description><TranslatedText>Derived from SDTM inputs and the versioned ADaM program.</TranslatedText></Description>
        </def:Origin>
      </ItemDef>
<ItemDef OID="IT.ADLB.LBSTRESU" Name="LBSTRESU" DataType="text" Length="20">
<Description><TranslatedText>LBSTRESU</TranslatedText></Description>
<def:Origin Type="Derived">
<Description><TranslatedText>Derived from SDTM inputs and the versioned ADaM program.</TranslatedText></Description>
        </def:Origin>
      </ItemDef>
<ItemDef OID="IT.ADLB.PARAM" Name="PARAM" DataType="text" Length="40">
<Description><TranslatedText>PARAM</TranslatedText></Description>
<def:Origin Type="Derived">
<Description><TranslatedText>Derived from SDTM inputs and the versioned ADaM program.</TranslatedText></Description>
        </def:Origin>
      </ItemDef>
<ItemDef OID="IT.ADLB.PARAMCD" Name="PARAMCD" DataType="text" Length="8">
<Description><TranslatedText>PARAMCD</TranslatedText></Description>
<def:Origin Type="Derived">
<Description><TranslatedText>Derived from SDTM inputs and the versioned ADaM program.</TranslatedText></Description>
        </def:Origin>
      </ItemDef>
<ItemDef OID="IT.ADLB.SRCDOM" Name="SRCDOM" DataType="text" Length="2">
<Description><TranslatedText>SRCDOM</TranslatedText></Description>
<def:Origin Type="Derived">
<Description><TranslatedText>Derived from SDTM inputs and the versioned ADaM program.</TranslatedText></Description>
        </def:Origin>
      </ItemDef>
<ItemDef OID="IT.ADLB.SRCSEQ" Name="SRCSEQ" DataType="integer" Length="8">
<Description><TranslatedText>SRCSEQ</TranslatedText></Description>
<def:Origin Type="Derived">
<Description><TranslatedText>Derived from SDTM inputs and the versioned ADaM program.</TranslatedText></Description>
        </def:Origin>
      </ItemDef>
<ItemDef OID="IT.ADLB.SRCVAR" Name="SRCVAR" DataType="text" Length="5">
<Description><TranslatedText>SRCVAR</TranslatedText></Description>
<def:Origin Type="Derived">
<Description><TranslatedText>Derived from SDTM inputs and the versioned ADaM program.</TranslatedText></Description>
        </def:Origin>
      </ItemDef>
<ItemDef OID="IT.ADLB.STUDYID" Name="STUDYID" DataType="text" Length="8">
<Description><TranslatedText>STUDYID</TranslatedText></Description>
<def:Origin Type="Assigned">
<Description><TranslatedText>Assigned according to the study convention.</TranslatedText></Description>
        </def:Origin>
      </ItemDef>
<ItemDef OID="IT.ADLB.TRT01A" Name="TRT01A" DataType="text" Length="50">
<Description><TranslatedText>TRT01A</TranslatedText></Description>
<def:Origin Type="Derived">
<Description><TranslatedText>Derived from SDTM inputs and the versioned ADaM program.</TranslatedText></Description>
        </def:Origin>
      </ItemDef>
<ItemDef OID="IT.ADLB.TRTEDT" Name="TRTEDT" DataType="date" Length="8">
<Description><TranslatedText>TRTEDT</TranslatedText></Description>
<def:Origin Type="Derived">
<Description><TranslatedText>Derived from SDTM inputs and the versioned ADaM program.</TranslatedText></Description>
        </def:Origin>
      </ItemDef>
<ItemDef OID="IT.ADLB.TRTSDT" Name="TRTSDT" DataType="date" Length="8">
<Description><TranslatedText>TRTSDT</TranslatedText></Description>
<def:Origin Type="Derived">
<Description><TranslatedText>Derived from SDTM inputs and the versioned ADaM program.</TranslatedText></Description>
        </def:Origin>
      </ItemDef>
<ItemDef OID="IT.ADLB.USUBJID" Name="USUBJID" DataType="text" Length="40">
<Description><TranslatedText>USUBJID</TranslatedText></Description>
<def:Origin Type="Derived">
<Description><TranslatedText>Derived from SDTM inputs and the versioned ADaM program.</TranslatedText></Description>
        </def:Origin>
      </ItemDef>
<ItemDef OID="IT.ADSL.AGE" Name="AGE" DataType="integer" Length="8">
<Description><TranslatedText>AGE</TranslatedText></Description>
<def:Origin Type="Derived">
<Description><TranslatedText>Derived from SDTM inputs and the versioned ADaM program.</TranslatedText></Description>
        </def:Origin>
      </ItemDef>
<ItemDef OID="IT.ADSL.BRTHDT" Name="BRTHDT" DataType="date" Length="8">
<Description><TranslatedText>BRTHDT</TranslatedText></Description>
<def:Origin Type="Derived">
<Description><TranslatedText>Derived from SDTM inputs and the versioned ADaM program.</TranslatedText></Description>
        </def:Origin>
      </ItemDef>
<ItemDef OID="IT.ADSL.EOSDT" Name="EOSDT" DataType="date" Length="8">
<Description><TranslatedText>EOSDT</TranslatedText></Description>
<def:Origin Type="Derived">
<Description><TranslatedText>Derived from SDTM inputs and the versioned ADaM program.</TranslatedText></Description>
        </def:Origin>
      </ItemDef>
<ItemDef OID="IT.ADSL.ITTFL" Name="ITTFL" DataType="text" Length="1">
<Description><TranslatedText>ITTFL</TranslatedText></Description>
<CodeListRef CodeListOID="CL.YN"/>
<def:Origin Type="Derived">
<Description><TranslatedText>Derived from SDTM inputs and the versioned ADaM program.</TranslatedText></Description>
        </def:Origin>
      </ItemDef>
<ItemDef OID="IT.ADSL.RACE" Name="RACE" DataType="text" Length="40">
<Description><TranslatedText>RACE</TranslatedText></Description>
<CodeListRef CodeListOID="CL.RACE"/>
<def:Origin Type="Derived">
<Description><TranslatedText>Derived from SDTM inputs and the versioned ADaM program.</TranslatedText></Description>
        </def:Origin>
      </ItemDef>
<ItemDef OID="IT.ADSL.RFICDT" Name="RFICDT" DataType="date" Length="8">
<Description><TranslatedText>RFICDT</TranslatedText></Description>
<def:Origin Type="Derived">
<Description><TranslatedText>Derived from SDTM inputs and the versioned ADaM program.</TranslatedText></Description>
        </def:Origin>
      </ItemDef>
<ItemDef OID="IT.ADSL.SAFFL" Name="SAFFL" DataType="text" Length="1">
<Description><TranslatedText>SAFFL</TranslatedText></Description>
<CodeListRef CodeListOID="CL.YN"/>
<def:Origin Type="Derived">
<Description><TranslatedText>Derived from SDTM inputs and the versioned ADaM program.</TranslatedText></Description>
        </def:Origin>
      </ItemDef>
<ItemDef OID="IT.ADSL.SEX" Name="SEX" DataType="text" Length="1">
<Description><TranslatedText>SEX</TranslatedText></Description>
<CodeListRef CodeListOID="CL.SEX"/>
<def:Origin Type="Derived">
<Description><TranslatedText>Derived from SDTM inputs and the versioned ADaM program.</TranslatedText></Description>
        </def:Origin>
      </ItemDef>
<ItemDef OID="IT.ADSL.SITEID" Name="SITEID" DataType="text" Length="10">
<Description><TranslatedText>SITEID</TranslatedText></Description>
<def:Origin Type="Derived">
<Description><TranslatedText>Derived from SDTM inputs and the versioned ADaM program.</TranslatedText></Description>
        </def:Origin>
      </ItemDef>
<ItemDef OID="IT.ADSL.STUDYID" Name="STUDYID" DataType="text" Length="8">
<Description><TranslatedText>STUDYID</TranslatedText></Description>
<def:Origin Type="Assigned">
<Description><TranslatedText>Assigned according to the study convention.</TranslatedText></Description>
        </def:Origin>
      </ItemDef>
<ItemDef OID="IT.ADSL.SUBJID" Name="SUBJID" DataType="text" Length="20">
<Description><TranslatedText>SUBJID</TranslatedText></Description>
<def:Origin Type="Derived">
<Description><TranslatedText>Derived from SDTM inputs and the versioned ADaM program.</TranslatedText></Description>
        </def:Origin>
      </ItemDef>
<ItemDef OID="IT.ADSL.TRT01A" Name="TRT01A" DataType="text" Length="50">
<Description><TranslatedText>TRT01A</TranslatedText></Description>
<def:Origin Type="Derived">
<Description><TranslatedText>Derived from SDTM inputs and the versioned ADaM program.</TranslatedText></Description>
        </def:Origin>
      </ItemDef>
<ItemDef OID="IT.ADSL.TRT01P" Name="TRT01P" DataType="text" Length="20">
<Description><TranslatedText>TRT01P</TranslatedText></Description>
<def:Origin Type="Derived">
<Description><TranslatedText>Derived from SDTM inputs and the versioned ADaM program.</TranslatedText></Description>
        </def:Origin>
      </ItemDef>
<ItemDef OID="IT.ADSL.TRTDURD" Name="TRTDURD" DataType="integer" Length="8">
<Description><TranslatedText>TRTDURD</TranslatedText></Description>
<def:Origin Type="Derived">
<Description><TranslatedText>Derived from SDTM inputs and the versioned ADaM program.</TranslatedText></Description>
        </def:Origin>
      </ItemDef>
<ItemDef OID="IT.ADSL.TRTEDT" Name="TRTEDT" DataType="date" Length="8">
<Description><TranslatedText>TRTEDT</TranslatedText></Description>
<def:Origin Type="Derived">
<Description><TranslatedText>Derived from SDTM inputs and the versioned ADaM program.</TranslatedText></Description>
        </def:Origin>
      </ItemDef>
<ItemDef OID="IT.ADSL.TRTSDT" Name="TRTSDT" DataType="date" Length="8">
<Description><TranslatedText>TRTSDT</TranslatedText></Description>
<def:Origin Type="Derived">
<Description><TranslatedText>Derived from SDTM inputs and the versioned ADaM program.</TranslatedText></Description>
        </def:Origin>
      </ItemDef>
<ItemDef OID="IT.ADSL.USUBJID" Name="USUBJID" DataType="text" Length="40">
<Description><TranslatedText>USUBJID</TranslatedText></Description>
<def:Origin Type="Derived">
<Description><TranslatedText>Derived from SDTM inputs and the versioned ADaM program.</TranslatedText></Description>
        </def:Origin>
      </ItemDef>
<ItemDef OID="IT.ADTTE.AVAL" Name="AVAL" DataType="float" Length="8">
<Description><TranslatedText>AVAL</TranslatedText></Description>
<def:Origin Type="Derived">
<Description><TranslatedText>Derived from SDTM inputs and the versioned ADaM program.</TranslatedText></Description>
        </def:Origin>
      </ItemDef>
<ItemDef OID="IT.ADTTE.CNSR" Name="CNSR" DataType="integer" Length="8">
<Description><TranslatedText>CNSR</TranslatedText></Description>
<CodeListRef CodeListOID="CL.CNSR"/>
<def:Origin Type="Derived">
<Description><TranslatedText>Derived from SDTM inputs and the versioned ADaM program.</TranslatedText></Description>
        </def:Origin>
      </ItemDef>
<ItemDef OID="IT.ADTTE.EOSDT" Name="EOSDT" DataType="date" Length="8">
<Description><TranslatedText>EOSDT</TranslatedText></Description>
<def:Origin Type="Derived">
<Description><TranslatedText>Derived from SDTM inputs and the versioned ADaM program.</TranslatedText></Description>
        </def:Origin>
      </ItemDef>
<ItemDef OID="IT.ADTTE.EVENTDT" Name="EVENTDT" DataType="date" Length="8">
<Description><TranslatedText>EVENTDT</TranslatedText></Description>
<def:Origin Type="Derived">
<Description><TranslatedText>Derived from SDTM inputs and the versioned ADaM program.</TranslatedText></Description>
        </def:Origin>
      </ItemDef>
<ItemDef OID="IT.ADTTE.PARAM" Name="PARAM" DataType="text" Length="27">
<Description><TranslatedText>PARAM</TranslatedText></Description>
<def:Origin Type="Derived">
<Description><TranslatedText>Derived from SDTM inputs and the versioned ADaM program.</TranslatedText></Description>
        </def:Origin>
      </ItemDef>
<ItemDef OID="IT.ADTTE.PARAMCD" Name="PARAMCD" DataType="text" Length="6">
<Description><TranslatedText>PARAMCD</TranslatedText></Description>
<def:Origin Type="Derived">
<Description><TranslatedText>Derived from SDTM inputs and the versioned ADaM program.</TranslatedText></Description>
        </def:Origin>
      </ItemDef>
<ItemDef OID="IT.ADTTE.STUDYID" Name="STUDYID" DataType="text" Length="8">
<Description><TranslatedText>STUDYID</TranslatedText></Description>
<def:Origin Type="Assigned">
<Description><TranslatedText>Assigned according to the study convention.</TranslatedText></Description>
        </def:Origin>
      </ItemDef>
<ItemDef OID="IT.ADTTE.TRT01A" Name="TRT01A" DataType="text" Length="50">
<Description><TranslatedText>TRT01A</TranslatedText></Description>
<def:Origin Type="Derived">
<Description><TranslatedText>Derived from SDTM inputs and the versioned ADaM program.</TranslatedText></Description>
        </def:Origin>
      </ItemDef>
<ItemDef OID="IT.ADTTE.TRT01P" Name="TRT01P" DataType="text" Length="20">
<Description><TranslatedText>TRT01P</TranslatedText></Description>
<def:Origin Type="Derived">
<Description><TranslatedText>Derived from SDTM inputs and the versioned ADaM program.</TranslatedText></Description>
        </def:Origin>
      </ItemDef>
<ItemDef OID="IT.ADTTE.TRTEDT" Name="TRTEDT" DataType="date" Length="8">
<Description><TranslatedText>TRTEDT</TranslatedText></Description>
<def:Origin Type="Derived">
<Description><TranslatedText>Derived from SDTM inputs and the versioned ADaM program.</TranslatedText></Description>
        </def:Origin>
      </ItemDef>
<ItemDef OID="IT.ADTTE.TRTSDT" Name="TRTSDT" DataType="date" Length="8">
<Description><TranslatedText>TRTSDT</TranslatedText></Description>
<def:Origin Type="Derived">
<Description><TranslatedText>Derived from SDTM inputs and the versioned ADaM program.</TranslatedText></Description>
        </def:Origin>
      </ItemDef>
<ItemDef OID="IT.ADTTE.USUBJID" Name="USUBJID" DataType="text" Length="40">
<Description><TranslatedText>USUBJID</TranslatedText></Description>
<def:Origin Type="Derived">
<Description><TranslatedText>Derived from SDTM inputs and the versioned ADaM program.</TranslatedText></Description>
        </def:Origin>
      </ItemDef>
<ItemDef OID="IT.ADVS.ABLFL" Name="ABLFL" DataType="text" Length="1">
<Description><TranslatedText>ABLFL</TranslatedText></Description>
<CodeListRef CodeListOID="CL.Y"/>
<def:Origin Type="Derived">
<Description><TranslatedText>Derived from SDTM inputs and the versioned ADaM program.</TranslatedText></Description>
        </def:Origin>
      </ItemDef>
<ItemDef OID="IT.ADVS.ASTDT" Name="ASTDT" DataType="date" Length="8">
<Description><TranslatedText>ASTDT</TranslatedText></Description>
<def:Origin Type="Derived">
<Description><TranslatedText>Derived from SDTM inputs and the versioned ADaM program.</TranslatedText></Description>
        </def:Origin>
      </ItemDef>
<ItemDef OID="IT.ADVS.ASTDY" Name="ASTDY" DataType="integer" Length="8">
<Description><TranslatedText>ASTDY</TranslatedText></Description>
<def:Origin Type="Derived">
<Description><TranslatedText>Derived from SDTM inputs and the versioned ADaM program.</TranslatedText></Description>
        </def:Origin>
      </ItemDef>
<ItemDef OID="IT.ADVS.AVAL" Name="AVAL" DataType="float" Length="8">
<Description><TranslatedText>AVAL</TranslatedText></Description>
<def:Origin Type="Derived">
<Description><TranslatedText>Derived from SDTM inputs and the versioned ADaM program.</TranslatedText></Description>
        </def:Origin>
      </ItemDef>
<ItemDef OID="IT.ADVS.AVISIT" Name="AVISIT" DataType="text" Length="7">
<Description><TranslatedText>AVISIT</TranslatedText></Description>
<def:Origin Type="Derived">
<Description><TranslatedText>Derived from SDTM inputs and the versioned ADaM program.</TranslatedText></Description>
        </def:Origin>
      </ItemDef>
<ItemDef OID="IT.ADVS.AVISITN" Name="AVISITN" DataType="float" Length="8">
<Description><TranslatedText>AVISITN</TranslatedText></Description>
<def:Origin Type="Derived">
<Description><TranslatedText>Derived from SDTM inputs and the versioned ADaM program.</TranslatedText></Description>
        </def:Origin>
      </ItemDef>
<ItemDef OID="IT.ADVS.BASE" Name="BASE" DataType="float" Length="8">
<Description><TranslatedText>BASE</TranslatedText></Description>
<def:Origin Type="Derived">
<Description><TranslatedText>Derived from SDTM inputs and the versioned ADaM program.</TranslatedText></Description>
        </def:Origin>
      </ItemDef>
<ItemDef OID="IT.ADVS.CHG" Name="CHG" DataType="float" Length="8">
<Description><TranslatedText>CHG</TranslatedText></Description>
<def:Origin Type="Derived">
<Description><TranslatedText>Derived from SDTM inputs and the versioned ADaM program.</TranslatedText></Description>
        </def:Origin>
      </ItemDef>
<ItemDef OID="IT.ADVS.PARAM" Name="PARAM" DataType="text" Length="40">
<Description><TranslatedText>PARAM</TranslatedText></Description>
<def:Origin Type="Derived">
<Description><TranslatedText>Derived from SDTM inputs and the versioned ADaM program.</TranslatedText></Description>
        </def:Origin>
      </ItemDef>
<ItemDef OID="IT.ADVS.PARAMCD" Name="PARAMCD" DataType="text" Length="8">
<Description><TranslatedText>PARAMCD</TranslatedText></Description>
<def:Origin Type="Derived">
<Description><TranslatedText>Derived from SDTM inputs and the versioned ADaM program.</TranslatedText></Description>
        </def:Origin>
      </ItemDef>
<ItemDef OID="IT.ADVS.SRCDOM" Name="SRCDOM" DataType="text" Length="2">
<Description><TranslatedText>SRCDOM</TranslatedText></Description>
<def:Origin Type="Derived">
<Description><TranslatedText>Derived from SDTM inputs and the versioned ADaM program.</TranslatedText></Description>
        </def:Origin>
      </ItemDef>
<ItemDef OID="IT.ADVS.SRCSEQ" Name="SRCSEQ" DataType="integer" Length="8">
<Description><TranslatedText>SRCSEQ</TranslatedText></Description>
<def:Origin Type="Derived">
<Description><TranslatedText>Derived from SDTM inputs and the versioned ADaM program.</TranslatedText></Description>
        </def:Origin>
      </ItemDef>
<ItemDef OID="IT.ADVS.SRCVAR" Name="SRCVAR" DataType="text" Length="5">
<Description><TranslatedText>SRCVAR</TranslatedText></Description>
<def:Origin Type="Derived">
<Description><TranslatedText>Derived from SDTM inputs and the versioned ADaM program.</TranslatedText></Description>
        </def:Origin>
      </ItemDef>
<ItemDef OID="IT.ADVS.STUDYID" Name="STUDYID" DataType="text" Length="8">
<Description><TranslatedText>STUDYID</TranslatedText></Description>
<def:Origin Type="Assigned">
<Description><TranslatedText>Assigned according to the study convention.</TranslatedText></Description>
        </def:Origin>
      </ItemDef>
<ItemDef OID="IT.ADVS.TRT01A" Name="TRT01A" DataType="text" Length="50">
<Description><TranslatedText>TRT01A</TranslatedText></Description>
<def:Origin Type="Derived">
<Description><TranslatedText>Derived from SDTM inputs and the versioned ADaM program.</TranslatedText></Description>
        </def:Origin>
      </ItemDef>
<ItemDef OID="IT.ADVS.TRTEDT" Name="TRTEDT" DataType="date" Length="8">
<Description><TranslatedText>TRTEDT</TranslatedText></Description>
<def:Origin Type="Derived">
<Description><TranslatedText>Derived from SDTM inputs and the versioned ADaM program.</TranslatedText></Description>
        </def:Origin>
      </ItemDef>
<ItemDef OID="IT.ADVS.TRTSDT" Name="TRTSDT" DataType="date" Length="8">
<Description><TranslatedText>TRTSDT</TranslatedText></Description>
<def:Origin Type="Derived">
<Description><TranslatedText>Derived from SDTM inputs and the versioned ADaM program.</TranslatedText></Description>
        </def:Origin>
      </ItemDef>
<ItemDef OID="IT.ADVS.USUBJID" Name="USUBJID" DataType="text" Length="40">
<Description><TranslatedText>USUBJID</TranslatedText></Description>
<def:Origin Type="Derived">
<Description><TranslatedText>Derived from SDTM inputs and the versioned ADaM program.</TranslatedText></Description>
        </def:Origin>
      </ItemDef>
<ItemDef OID="IT.QC_REPORT.CHECK_ID" Name="CHECK_ID" DataType="text" Length="10">
<Description><TranslatedText>CHECK_ID</TranslatedText></Description>
<def:Origin Type="Derived">
<Description><TranslatedText>Derived from SDTM inputs and the versioned ADaM program.</TranslatedText></Description>
        </def:Origin>
      </ItemDef>
<ItemDef OID="IT.QC_REPORT.DOMAIN" Name="DOMAIN" DataType="text" Length="10">
<Description><TranslatedText>DOMAIN</TranslatedText></Description>
<def:Origin Type="Assigned">
<Description><TranslatedText>Assigned according to the study convention.</TranslatedText></Description>
        </def:Origin>
      </ItemDef>
<ItemDef OID="IT.QC_REPORT.N_FAIL" Name="N_FAIL" DataType="integer" Length="8">
<Description><TranslatedText>N_FAIL</TranslatedText></Description>
<def:Origin Type="Derived">
<Description><TranslatedText>Derived from SDTM inputs and the versioned ADaM program.</TranslatedText></Description>
        </def:Origin>
      </ItemDef>
<ItemDef OID="IT.QC_REPORT.RULE" Name="RULE" DataType="text" Length="70">
<Description><TranslatedText>RULE</TranslatedText></Description>
<def:Origin Type="Derived">
<Description><TranslatedText>Derived from SDTM inputs and the versioned ADaM program.</TranslatedText></Description>
        </def:Origin>
      </ItemDef>
<ItemDef OID="IT.QC_REPORT.STATUS" Name="STATUS" DataType="text" Length="10">
<Description><TranslatedText>STATUS</TranslatedText></Description>
<def:Origin Type="Derived">
<Description><TranslatedText>Derived from SDTM inputs and the versioned ADaM program.</TranslatedText></Description>
        </def:Origin>
      </ItemDef>
<ItemDef OID="IT.AE.AEDECOD" Name="AEDECOD" DataType="text" Length="60">
<Description><TranslatedText>AEDECOD</TranslatedText></Description>
<def:Origin Type="Derived">
<Description><TranslatedText>Derived from the source EDC extract by the versioned SDTM program.</TranslatedText></Description>
        </def:Origin>
      </ItemDef>
<ItemDef OID="IT.AE.AEENDTC" Name="AEENDTC" DataType="text" Length="10">
<Description><TranslatedText>AEENDTC</TranslatedText></Description>
<def:Origin Type="Derived">
<Description><TranslatedText>Derived from the source EDC extract by the versioned SDTM program.</TranslatedText></Description>
        </def:Origin>
      </ItemDef>
<ItemDef OID="IT.AE.AEOUT" Name="AEOUT" DataType="text" Length="30">
<Description><TranslatedText>AEOUT</TranslatedText></Description>
<CodeListRef CodeListOID="CL.AEOUT"/>
<def:Origin Type="Derived">
<Description><TranslatedText>Derived from the source EDC extract by the versioned SDTM program.</TranslatedText></Description>
        </def:Origin>
      </ItemDef>
<ItemDef OID="IT.AE.AEREL" Name="AEREL" DataType="text" Length="15">
<Description><TranslatedText>AEREL</TranslatedText></Description>
<CodeListRef CodeListOID="CL.AEREL"/>
<def:Origin Type="Derived">
<Description><TranslatedText>Derived from the source EDC extract by the versioned SDTM program.</TranslatedText></Description>
        </def:Origin>
      </ItemDef>
<ItemDef OID="IT.AE.AESEQ" Name="AESEQ" DataType="integer" Length="8">
<Description><TranslatedText>AESEQ</TranslatedText></Description>
<def:Origin Type="Derived">
<Description><TranslatedText>Derived from the source EDC extract by the versioned SDTM program.</TranslatedText></Description>
        </def:Origin>
      </ItemDef>
<ItemDef OID="IT.AE.AESER" Name="AESER" DataType="text" Length="1">
<Description><TranslatedText>AESER</TranslatedText></Description>
<CodeListRef CodeListOID="CL.YN"/>
<def:Origin Type="Derived">
<Description><TranslatedText>Derived from the source EDC extract by the versioned SDTM program.</TranslatedText></Description>
        </def:Origin>
      </ItemDef>
<ItemDef OID="IT.AE.AESEV" Name="AESEV" DataType="text" Length="10">
<Description><TranslatedText>AESEV</TranslatedText></Description>
<CodeListRef CodeListOID="CL.AESEV"/>
<def:Origin Type="Derived">
<Description><TranslatedText>Derived from the source EDC extract by the versioned SDTM program.</TranslatedText></Description>
        </def:Origin>
      </ItemDef>
<ItemDef OID="IT.AE.AESTDTC" Name="AESTDTC" DataType="text" Length="10">
<Description><TranslatedText>AESTDTC</TranslatedText></Description>
<def:Origin Type="Derived">
<Description><TranslatedText>Derived from the source EDC extract by the versioned SDTM program.</TranslatedText></Description>
        </def:Origin>
      </ItemDef>
<ItemDef OID="IT.AE.AETERM" Name="AETERM" DataType="text" Length="60">
<Description><TranslatedText>AETERM</TranslatedText></Description>
<def:Origin Type="Derived">
<Description><TranslatedText>Derived from the source EDC extract by the versioned SDTM program.</TranslatedText></Description>
        </def:Origin>
      </ItemDef>
<ItemDef OID="IT.AE.DOMAIN" Name="DOMAIN" DataType="text" Length="2">
<Description><TranslatedText>DOMAIN</TranslatedText></Description>
<def:Origin Type="Assigned">
<Description><TranslatedText>Assigned according to the study convention.</TranslatedText></Description>
        </def:Origin>
      </ItemDef>
<ItemDef OID="IT.AE.STUDYID" Name="STUDYID" DataType="text" Length="8">
<Description><TranslatedText>STUDYID</TranslatedText></Description>
<def:Origin Type="Assigned">
<Description><TranslatedText>Assigned according to the study convention.</TranslatedText></Description>
        </def:Origin>
      </ItemDef>
<ItemDef OID="IT.AE.USUBJID" Name="USUBJID" DataType="text" Length="40">
<Description><TranslatedText>USUBJID</TranslatedText></Description>
<def:Origin Type="Derived">
<Description><TranslatedText>Derived from the source EDC extract by the versioned SDTM program.</TranslatedText></Description>
        </def:Origin>
      </ItemDef>
<ItemDef OID="IT.CM.CMDECOD" Name="CMDECOD" DataType="text" Length="50">
<Description><TranslatedText>CMDECOD</TranslatedText></Description>
<def:Origin Type="Derived">
<Description><TranslatedText>Derived from the source EDC extract by the versioned SDTM program.</TranslatedText></Description>
        </def:Origin>
      </ItemDef>
<ItemDef OID="IT.CM.CMDOSE" Name="CMDOSE" DataType="float" Length="8">
<Description><TranslatedText>CMDOSE</TranslatedText></Description>
<def:Origin Type="Derived">
<Description><TranslatedText>Derived from the source EDC extract by the versioned SDTM program.</TranslatedText></Description>
        </def:Origin>
      </ItemDef>
<ItemDef OID="IT.CM.CMDOSU" Name="CMDOSU" DataType="text" Length="20">
<Description><TranslatedText>CMDOSU</TranslatedText></Description>
<def:Origin Type="Derived">
<Description><TranslatedText>Derived from the source EDC extract by the versioned SDTM program.</TranslatedText></Description>
        </def:Origin>
      </ItemDef>
<ItemDef OID="IT.CM.CMENDTC" Name="CMENDTC" DataType="text" Length="10">
<Description><TranslatedText>CMENDTC</TranslatedText></Description>
<def:Origin Type="Derived">
<Description><TranslatedText>Derived from the source EDC extract by the versioned SDTM program.</TranslatedText></Description>
        </def:Origin>
      </ItemDef>
<ItemDef OID="IT.CM.CMENRTPT" Name="CMENRTPT" DataType="text" Length="8">
<Description><TranslatedText>CMENRTPT</TranslatedText></Description>
<CodeListRef CodeListOID="CL.STENRF"/>
<def:Origin Type="Derived">
<Description><TranslatedText>Derived from the source EDC extract by the versioned SDTM program.</TranslatedText></Description>
        </def:Origin>
      </ItemDef>
<ItemDef OID="IT.CM.CMENTPT" Name="CMENTPT" DataType="text" Length="10">
<Description><TranslatedText>CMENTPT</TranslatedText></Description>
<def:Origin Type="Derived">
<Description><TranslatedText>Derived from the source EDC extract by the versioned SDTM program.</TranslatedText></Description>
        </def:Origin>
      </ItemDef>
<ItemDef OID="IT.CM.CMSEQ" Name="CMSEQ" DataType="integer" Length="8">
<Description><TranslatedText>CMSEQ</TranslatedText></Description>
<def:Origin Type="Derived">
<Description><TranslatedText>Derived from the source EDC extract by the versioned SDTM program.</TranslatedText></Description>
        </def:Origin>
      </ItemDef>
<ItemDef OID="IT.CM.CMSTDTC" Name="CMSTDTC" DataType="text" Length="10">
<Description><TranslatedText>CMSTDTC</TranslatedText></Description>
<def:Origin Type="Derived">
<Description><TranslatedText>Derived from the source EDC extract by the versioned SDTM program.</TranslatedText></Description>
        </def:Origin>
      </ItemDef>
<ItemDef OID="IT.CM.CMTRT" Name="CMTRT" DataType="text" Length="50">
<Description><TranslatedText>CMTRT</TranslatedText></Description>
<def:Origin Type="Derived">
<Description><TranslatedText>Derived from the source EDC extract by the versioned SDTM program.</TranslatedText></Description>
        </def:Origin>
      </ItemDef>
<ItemDef OID="IT.CM.DOMAIN" Name="DOMAIN" DataType="text" Length="2">
<Description><TranslatedText>DOMAIN</TranslatedText></Description>
<def:Origin Type="Assigned">
<Description><TranslatedText>Assigned according to the study convention.</TranslatedText></Description>
        </def:Origin>
      </ItemDef>
<ItemDef OID="IT.CM.STUDYID" Name="STUDYID" DataType="text" Length="8">
<Description><TranslatedText>STUDYID</TranslatedText></Description>
<def:Origin Type="Assigned">
<Description><TranslatedText>Assigned according to the study convention.</TranslatedText></Description>
        </def:Origin>
      </ItemDef>
<ItemDef OID="IT.CM.USUBJID" Name="USUBJID" DataType="text" Length="40">
<Description><TranslatedText>USUBJID</TranslatedText></Description>
<def:Origin Type="Derived">
<Description><TranslatedText>Derived from the source EDC extract by the versioned SDTM program.</TranslatedText></Description>
        </def:Origin>
      </ItemDef>
<ItemDef OID="IT.DM.ARM" Name="ARM" DataType="text" Length="20">
<Description><TranslatedText>ARM</TranslatedText></Description>
<def:Origin Type="Derived">
<Description><TranslatedText>Derived from the source EDC extract by the versioned SDTM program.</TranslatedText></Description>
        </def:Origin>
      </ItemDef>
<ItemDef OID="IT.DM.ARMCD" Name="ARMCD" DataType="text" Length="8">
<Description><TranslatedText>ARMCD</TranslatedText></Description>
<def:Origin Type="Derived">
<Description><TranslatedText>Derived from the source EDC extract by the versioned SDTM program.</TranslatedText></Description>
        </def:Origin>
      </ItemDef>
<ItemDef OID="IT.DM.BRTHDTC" Name="BRTHDTC" DataType="text" Length="10">
<Description><TranslatedText>BRTHDTC</TranslatedText></Description>
<def:Origin Type="Derived">
<Description><TranslatedText>Derived from the source EDC extract by the versioned SDTM program.</TranslatedText></Description>
        </def:Origin>
      </ItemDef>
<ItemDef OID="IT.DM.DOMAIN" Name="DOMAIN" DataType="text" Length="2">
<Description><TranslatedText>DOMAIN</TranslatedText></Description>
<def:Origin Type="Assigned">
<Description><TranslatedText>Assigned according to the study convention.</TranslatedText></Description>
        </def:Origin>
      </ItemDef>
<ItemDef OID="IT.DM.RACE" Name="RACE" DataType="text" Length="40">
<Description><TranslatedText>RACE</TranslatedText></Description>
<CodeListRef CodeListOID="CL.RACE"/>
<def:Origin Type="Derived">
<Description><TranslatedText>Derived from the source EDC extract by the versioned SDTM program.</TranslatedText></Description>
        </def:Origin>
      </ItemDef>
<ItemDef OID="IT.DM.RFENDTC" Name="RFENDTC" DataType="text" Length="10">
<Description><TranslatedText>RFENDTC</TranslatedText></Description>
<def:Origin Type="Derived">
<Description><TranslatedText>Derived from the source EDC extract by the versioned SDTM program.</TranslatedText></Description>
        </def:Origin>
      </ItemDef>
<ItemDef OID="IT.DM.RFICDTC" Name="RFICDTC" DataType="text" Length="10">
<Description><TranslatedText>RFICDTC</TranslatedText></Description>
<def:Origin Type="Derived">
<Description><TranslatedText>Derived from the source EDC extract by the versioned SDTM program.</TranslatedText></Description>
        </def:Origin>
      </ItemDef>
<ItemDef OID="IT.DM.RFPENDTC" Name="RFPENDTC" DataType="text" Length="10">
<Description><TranslatedText>RFPENDTC</TranslatedText></Description>
<def:Origin Type="Derived">
<Description><TranslatedText>Derived from the source EDC extract by the versioned SDTM program.</TranslatedText></Description>
        </def:Origin>
      </ItemDef>
<ItemDef OID="IT.DM.RFSTDTC" Name="RFSTDTC" DataType="text" Length="10">
<Description><TranslatedText>RFSTDTC</TranslatedText></Description>
<def:Origin Type="Derived">
<Description><TranslatedText>Derived from the source EDC extract by the versioned SDTM program.</TranslatedText></Description>
        </def:Origin>
      </ItemDef>
<ItemDef OID="IT.DM.SEX" Name="SEX" DataType="text" Length="1">
<Description><TranslatedText>SEX</TranslatedText></Description>
<CodeListRef CodeListOID="CL.SEX"/>
<def:Origin Type="Derived">
<Description><TranslatedText>Derived from the source EDC extract by the versioned SDTM program.</TranslatedText></Description>
        </def:Origin>
      </ItemDef>
<ItemDef OID="IT.DM.SITEID" Name="SITEID" DataType="text" Length="10">
<Description><TranslatedText>SITEID</TranslatedText></Description>
<def:Origin Type="Derived">
<Description><TranslatedText>Derived from the source EDC extract by the versioned SDTM program.</TranslatedText></Description>
        </def:Origin>
      </ItemDef>
<ItemDef OID="IT.DM.STUDYID" Name="STUDYID" DataType="text" Length="8">
<Description><TranslatedText>STUDYID</TranslatedText></Description>
<def:Origin Type="Assigned">
<Description><TranslatedText>Assigned according to the study convention.</TranslatedText></Description>
        </def:Origin>
      </ItemDef>
<ItemDef OID="IT.DM.SUBJID" Name="SUBJID" DataType="text" Length="20">
<Description><TranslatedText>SUBJID</TranslatedText></Description>
<def:Origin Type="Derived">
<Description><TranslatedText>Derived from the source EDC extract by the versioned SDTM program.</TranslatedText></Description>
        </def:Origin>
      </ItemDef>
<ItemDef OID="IT.DM.USUBJID" Name="USUBJID" DataType="text" Length="40">
<Description><TranslatedText>USUBJID</TranslatedText></Description>
<def:Origin Type="Derived">
<Description><TranslatedText>Derived from the source EDC extract by the versioned SDTM program.</TranslatedText></Description>
        </def:Origin>
      </ItemDef>
<ItemDef OID="IT.DS.DOMAIN" Name="DOMAIN" DataType="text" Length="2">
<Description><TranslatedText>DOMAIN</TranslatedText></Description>
<def:Origin Type="Assigned">
<Description><TranslatedText>Assigned according to the study convention.</TranslatedText></Description>
        </def:Origin>
      </ItemDef>
<ItemDef OID="IT.DS.DSCAT" Name="DSCAT" DataType="text" Length="40">
<Description><TranslatedText>DSCAT</TranslatedText></Description>
<def:Origin Type="Derived">
<Description><TranslatedText>Derived from the source EDC extract by the versioned SDTM program.</TranslatedText></Description>
        </def:Origin>
      </ItemDef>
<ItemDef OID="IT.DS.DSDECOD" Name="DSDECOD" DataType="text" Length="80">
<Description><TranslatedText>DSDECOD</TranslatedText></Description>
<def:Origin Type="Derived">
<Description><TranslatedText>Derived from the source EDC extract by the versioned SDTM program.</TranslatedText></Description>
        </def:Origin>
      </ItemDef>
<ItemDef OID="IT.DS.DSSCAT" Name="DSSCAT" DataType="text" Length="40">
<Description><TranslatedText>DSSCAT</TranslatedText></Description>
<def:Origin Type="Derived">
<Description><TranslatedText>Derived from the source EDC extract by the versioned SDTM program.</TranslatedText></Description>
        </def:Origin>
      </ItemDef>
<ItemDef OID="IT.DS.DSSEQ" Name="DSSEQ" DataType="integer" Length="8">
<Description><TranslatedText>DSSEQ</TranslatedText></Description>
<def:Origin Type="Derived">
<Description><TranslatedText>Derived from the source EDC extract by the versioned SDTM program.</TranslatedText></Description>
        </def:Origin>
      </ItemDef>
<ItemDef OID="IT.DS.DSSTDTC" Name="DSSTDTC" DataType="text" Length="10">
<Description><TranslatedText>DSSTDTC</TranslatedText></Description>
<def:Origin Type="Derived">
<Description><TranslatedText>Derived from the source EDC extract by the versioned SDTM program.</TranslatedText></Description>
        </def:Origin>
      </ItemDef>
<ItemDef OID="IT.DS.DSTERM" Name="DSTERM" DataType="text" Length="80">
<Description><TranslatedText>DSTERM</TranslatedText></Description>
<def:Origin Type="Derived">
<Description><TranslatedText>Derived from the source EDC extract by the versioned SDTM program.</TranslatedText></Description>
        </def:Origin>
      </ItemDef>
<ItemDef OID="IT.DS.EPOCH" Name="EPOCH" DataType="text" Length="20">
<Description><TranslatedText>EPOCH</TranslatedText></Description>
<def:Origin Type="Derived">
<Description><TranslatedText>Derived from the source EDC extract by the versioned SDTM program.</TranslatedText></Description>
        </def:Origin>
      </ItemDef>
<ItemDef OID="IT.DS.STUDYID" Name="STUDYID" DataType="text" Length="8">
<Description><TranslatedText>STUDYID</TranslatedText></Description>
<def:Origin Type="Assigned">
<Description><TranslatedText>Assigned according to the study convention.</TranslatedText></Description>
        </def:Origin>
      </ItemDef>
<ItemDef OID="IT.DS.USUBJID" Name="USUBJID" DataType="text" Length="40">
<Description><TranslatedText>USUBJID</TranslatedText></Description>
<def:Origin Type="Derived">
<Description><TranslatedText>Derived from the source EDC extract by the versioned SDTM program.</TranslatedText></Description>
        </def:Origin>
      </ItemDef>
<ItemDef OID="IT.EG.DOMAIN" Name="DOMAIN" DataType="text" Length="2">
<Description><TranslatedText>DOMAIN</TranslatedText></Description>
<def:Origin Type="Assigned">
<Description><TranslatedText>Assigned according to the study convention.</TranslatedText></Description>
        </def:Origin>
      </ItemDef>
<ItemDef OID="IT.EG.EGDTC" Name="EGDTC" DataType="text" Length="10">
<Description><TranslatedText>EGDTC</TranslatedText></Description>
<def:Origin Type="Derived">
<Description><TranslatedText>Derived from the source EDC extract by the versioned SDTM program.</TranslatedText></Description>
        </def:Origin>
      </ItemDef>
<ItemDef OID="IT.EG.EGORRES" Name="EGORRES" DataType="text" Length="20">
<Description><TranslatedText>EGORRES</TranslatedText></Description>
<def:Origin Type="Derived">
<Description><TranslatedText>Derived from the source EDC extract by the versioned SDTM program.</TranslatedText></Description>
        </def:Origin>
      </ItemDef>
<ItemDef OID="IT.EG.EGORRESU" Name="EGORRESU" DataType="text" Length="20">
<Description><TranslatedText>EGORRESU</TranslatedText></Description>
<def:Origin Type="Derived">
<Description><TranslatedText>Derived from the source EDC extract by the versioned SDTM program.</TranslatedText></Description>
        </def:Origin>
      </ItemDef>
<ItemDef OID="IT.EG.EGSEQ" Name="EGSEQ" DataType="integer" Length="8">
<Description><TranslatedText>EGSEQ</TranslatedText></Description>
<def:Origin Type="Derived">
<Description><TranslatedText>Derived from the source EDC extract by the versioned SDTM program.</TranslatedText></Description>
        </def:Origin>
      </ItemDef>
<ItemDef OID="IT.EG.EGSTRESC" Name="EGSTRESC" DataType="text" Length="20">
<Description><TranslatedText>EGSTRESC</TranslatedText></Description>
<def:Origin Type="Derived">
<Description><TranslatedText>Derived from the source EDC extract by the versioned SDTM program.</TranslatedText></Description>
        </def:Origin>
      </ItemDef>
<ItemDef OID="IT.EG.EGSTRESN" Name="EGSTRESN" DataType="float" Length="8">
<Description><TranslatedText>EGSTRESN</TranslatedText></Description>
<def:Origin Type="Derived">
<Description><TranslatedText>Derived from the source EDC extract by the versioned SDTM program.</TranslatedText></Description>
        </def:Origin>
      </ItemDef>
<ItemDef OID="IT.EG.EGSTRESU" Name="EGSTRESU" DataType="text" Length="20">
<Description><TranslatedText>EGSTRESU</TranslatedText></Description>
<def:Origin Type="Derived">
<Description><TranslatedText>Derived from the source EDC extract by the versioned SDTM program.</TranslatedText></Description>
        </def:Origin>
      </ItemDef>
<ItemDef OID="IT.EG.EGTEST" Name="EGTEST" DataType="text" Length="40">
<Description><TranslatedText>EGTEST</TranslatedText></Description>
<def:Origin Type="Derived">
<Description><TranslatedText>Derived from the source EDC extract by the versioned SDTM program.</TranslatedText></Description>
        </def:Origin>
      </ItemDef>
<ItemDef OID="IT.EG.EGTESTCD" Name="EGTESTCD" DataType="text" Length="8">
<Description><TranslatedText>EGTESTCD</TranslatedText></Description>
<def:Origin Type="Derived">
<Description><TranslatedText>Derived from the source EDC extract by the versioned SDTM program.</TranslatedText></Description>
        </def:Origin>
      </ItemDef>
<ItemDef OID="IT.EG.STUDYID" Name="STUDYID" DataType="text" Length="8">
<Description><TranslatedText>STUDYID</TranslatedText></Description>
<def:Origin Type="Assigned">
<Description><TranslatedText>Assigned according to the study convention.</TranslatedText></Description>
        </def:Origin>
      </ItemDef>
<ItemDef OID="IT.EG.USUBJID" Name="USUBJID" DataType="text" Length="40">
<Description><TranslatedText>USUBJID</TranslatedText></Description>
<def:Origin Type="Derived">
<Description><TranslatedText>Derived from the source EDC extract by the versioned SDTM program.</TranslatedText></Description>
        </def:Origin>
      </ItemDef>
<ItemDef OID="IT.EG.VISIT" Name="VISIT" DataType="text" Length="7">
<Description><TranslatedText>VISIT</TranslatedText></Description>
<def:Origin Type="Derived">
<Description><TranslatedText>Derived from the source EDC extract by the versioned SDTM program.</TranslatedText></Description>
        </def:Origin>
      </ItemDef>
<ItemDef OID="IT.EG.VISITNUM" Name="VISITNUM" DataType="float" Length="8">
<Description><TranslatedText>VISITNUM</TranslatedText></Description>
<def:Origin Type="Derived">
<Description><TranslatedText>Derived from the source EDC extract by the versioned SDTM program.</TranslatedText></Description>
        </def:Origin>
      </ItemDef>
<ItemDef OID="IT.EX.DOMAIN" Name="DOMAIN" DataType="text" Length="2">
<Description><TranslatedText>DOMAIN</TranslatedText></Description>
<def:Origin Type="Assigned">
<Description><TranslatedText>Assigned according to the study convention.</TranslatedText></Description>
        </def:Origin>
      </ItemDef>
<ItemDef OID="IT.EX.EXDOSE" Name="EXDOSE" DataType="float" Length="8">
<Description><TranslatedText>EXDOSE</TranslatedText></Description>
<def:Origin Type="Derived">
<Description><TranslatedText>Derived from the source EDC extract by the versioned SDTM program.</TranslatedText></Description>
        </def:Origin>
      </ItemDef>
<ItemDef OID="IT.EX.EXDOSU" Name="EXDOSU" DataType="text" Length="20">
<Description><TranslatedText>EXDOSU</TranslatedText></Description>
<def:Origin Type="Derived">
<Description><TranslatedText>Derived from the source EDC extract by the versioned SDTM program.</TranslatedText></Description>
        </def:Origin>
      </ItemDef>
<ItemDef OID="IT.EX.EXENDTC" Name="EXENDTC" DataType="text" Length="10">
<Description><TranslatedText>EXENDTC</TranslatedText></Description>
<def:Origin Type="Derived">
<Description><TranslatedText>Derived from the source EDC extract by the versioned SDTM program.</TranslatedText></Description>
        </def:Origin>
      </ItemDef>
<ItemDef OID="IT.EX.EXSEQ" Name="EXSEQ" DataType="integer" Length="8">
<Description><TranslatedText>EXSEQ</TranslatedText></Description>
<def:Origin Type="Derived">
<Description><TranslatedText>Derived from the source EDC extract by the versioned SDTM program.</TranslatedText></Description>
        </def:Origin>
      </ItemDef>
<ItemDef OID="IT.EX.EXSTDTC" Name="EXSTDTC" DataType="text" Length="10">
<Description><TranslatedText>EXSTDTC</TranslatedText></Description>
<def:Origin Type="Derived">
<Description><TranslatedText>Derived from the source EDC extract by the versioned SDTM program.</TranslatedText></Description>
        </def:Origin>
      </ItemDef>
<ItemDef OID="IT.EX.EXTRT" Name="EXTRT" DataType="text" Length="50">
<Description><TranslatedText>EXTRT</TranslatedText></Description>
<def:Origin Type="Derived">
<Description><TranslatedText>Derived from the source EDC extract by the versioned SDTM program.</TranslatedText></Description>
        </def:Origin>
      </ItemDef>
<ItemDef OID="IT.EX.STUDYID" Name="STUDYID" DataType="text" Length="8">
<Description><TranslatedText>STUDYID</TranslatedText></Description>
<def:Origin Type="Assigned">
<Description><TranslatedText>Assigned according to the study convention.</TranslatedText></Description>
        </def:Origin>
      </ItemDef>
<ItemDef OID="IT.EX.USUBJID" Name="USUBJID" DataType="text" Length="40">
<Description><TranslatedText>USUBJID</TranslatedText></Description>
<def:Origin Type="Derived">
<Description><TranslatedText>Derived from the source EDC extract by the versioned SDTM program.</TranslatedText></Description>
        </def:Origin>
      </ItemDef>
<ItemDef OID="IT.LB.DOMAIN" Name="DOMAIN" DataType="text" Length="2">
<Description><TranslatedText>DOMAIN</TranslatedText></Description>
<def:Origin Type="Assigned">
<Description><TranslatedText>Assigned according to the study convention.</TranslatedText></Description>
        </def:Origin>
      </ItemDef>
<ItemDef OID="IT.LB.LBCAT" Name="LBCAT" DataType="text" Length="20">
<Description><TranslatedText>LBCAT</TranslatedText></Description>
<def:Origin Type="Derived">
<Description><TranslatedText>Derived from the source EDC extract by the versioned SDTM program.</TranslatedText></Description>
        </def:Origin>
      </ItemDef>
<ItemDef OID="IT.LB.LBDTC" Name="LBDTC" DataType="text" Length="10">
<Description><TranslatedText>LBDTC</TranslatedText></Description>
<def:Origin Type="Derived">
<Description><TranslatedText>Derived from the source EDC extract by the versioned SDTM program.</TranslatedText></Description>
        </def:Origin>
      </ItemDef>
<ItemDef OID="IT.LB.LBORRES" Name="LBORRES" DataType="text" Length="20">
<Description><TranslatedText>LBORRES</TranslatedText></Description>
<def:Origin Type="Derived">
<Description><TranslatedText>Derived from the source EDC extract by the versioned SDTM program.</TranslatedText></Description>
        </def:Origin>
      </ItemDef>
<ItemDef OID="IT.LB.LBORRESU" Name="LBORRESU" DataType="text" Length="20">
<Description><TranslatedText>LBORRESU</TranslatedText></Description>
<def:Origin Type="Derived">
<Description><TranslatedText>Derived from the source EDC extract by the versioned SDTM program.</TranslatedText></Description>
        </def:Origin>
      </ItemDef>
<ItemDef OID="IT.LB.LBSEQ" Name="LBSEQ" DataType="integer" Length="8">
<Description><TranslatedText>LBSEQ</TranslatedText></Description>
<def:Origin Type="Derived">
<Description><TranslatedText>Derived from the source EDC extract by the versioned SDTM program.</TranslatedText></Description>
        </def:Origin>
      </ItemDef>
<ItemDef OID="IT.LB.LBSTRESC" Name="LBSTRESC" DataType="text" Length="20">
<Description><TranslatedText>LBSTRESC</TranslatedText></Description>
<def:Origin Type="Derived">
<Description><TranslatedText>Derived from the source EDC extract by the versioned SDTM program.</TranslatedText></Description>
        </def:Origin>
      </ItemDef>
<ItemDef OID="IT.LB.LBSTRESN" Name="LBSTRESN" DataType="float" Length="8">
<Description><TranslatedText>LBSTRESN</TranslatedText></Description>
<def:Origin Type="Derived">
<Description><TranslatedText>Derived from the source EDC extract by the versioned SDTM program.</TranslatedText></Description>
        </def:Origin>
      </ItemDef>
<ItemDef OID="IT.LB.LBSTRESU" Name="LBSTRESU" DataType="text" Length="20">
<Description><TranslatedText>LBSTRESU</TranslatedText></Description>
<def:Origin Type="Derived">
<Description><TranslatedText>Derived from the source EDC extract by the versioned SDTM program.</TranslatedText></Description>
        </def:Origin>
      </ItemDef>
<ItemDef OID="IT.LB.LBTEST" Name="LBTEST" DataType="text" Length="40">
<Description><TranslatedText>LBTEST</TranslatedText></Description>
<def:Origin Type="Derived">
<Description><TranslatedText>Derived from the source EDC extract by the versioned SDTM program.</TranslatedText></Description>
        </def:Origin>
      </ItemDef>
<ItemDef OID="IT.LB.LBTESTCD" Name="LBTESTCD" DataType="text" Length="8">
<Description><TranslatedText>LBTESTCD</TranslatedText></Description>
<def:Origin Type="Derived">
<Description><TranslatedText>Derived from the source EDC extract by the versioned SDTM program.</TranslatedText></Description>
        </def:Origin>
      </ItemDef>
<ItemDef OID="IT.LB.STUDYID" Name="STUDYID" DataType="text" Length="8">
<Description><TranslatedText>STUDYID</TranslatedText></Description>
<def:Origin Type="Assigned">
<Description><TranslatedText>Assigned according to the study convention.</TranslatedText></Description>
        </def:Origin>
      </ItemDef>
<ItemDef OID="IT.LB.USUBJID" Name="USUBJID" DataType="text" Length="40">
<Description><TranslatedText>USUBJID</TranslatedText></Description>
<def:Origin Type="Derived">
<Description><TranslatedText>Derived from the source EDC extract by the versioned SDTM program.</TranslatedText></Description>
        </def:Origin>
      </ItemDef>
<ItemDef OID="IT.LB.VISIT" Name="VISIT" DataType="text" Length="7">
<Description><TranslatedText>VISIT</TranslatedText></Description>
<def:Origin Type="Derived">
<Description><TranslatedText>Derived from the source EDC extract by the versioned SDTM program.</TranslatedText></Description>
        </def:Origin>
      </ItemDef>
<ItemDef OID="IT.LB.VISITNUM" Name="VISITNUM" DataType="float" Length="8">
<Description><TranslatedText>VISITNUM</TranslatedText></Description>
<def:Origin Type="Derived">
<Description><TranslatedText>Derived from the source EDC extract by the versioned SDTM program.</TranslatedText></Description>
        </def:Origin>
      </ItemDef>
<ItemDef OID="IT.MH.DOMAIN" Name="DOMAIN" DataType="text" Length="2">
<Description><TranslatedText>DOMAIN</TranslatedText></Description>
<def:Origin Type="Assigned">
<Description><TranslatedText>Assigned according to the study convention.</TranslatedText></Description>
        </def:Origin>
      </ItemDef>
<ItemDef OID="IT.MH.MHSEQ" Name="MHSEQ" DataType="integer" Length="8">
<Description><TranslatedText>MHSEQ</TranslatedText></Description>
<def:Origin Type="Derived">
<Description><TranslatedText>Derived from the source EDC extract by the versioned SDTM program.</TranslatedText></Description>
        </def:Origin>
      </ItemDef>
<ItemDef OID="IT.MH.MHSTDTC" Name="MHSTDTC" DataType="text" Length="10">
<Description><TranslatedText>MHSTDTC</TranslatedText></Description>
<def:Origin Type="Derived">
<Description><TranslatedText>Derived from the source EDC extract by the versioned SDTM program.</TranslatedText></Description>
        </def:Origin>
      </ItemDef>
<ItemDef OID="IT.MH.MHTERM" Name="MHTERM" DataType="text" Length="60">
<Description><TranslatedText>MHTERM</TranslatedText></Description>
<def:Origin Type="Derived">
<Description><TranslatedText>Derived from the source EDC extract by the versioned SDTM program.</TranslatedText></Description>
        </def:Origin>
      </ItemDef>
<ItemDef OID="IT.MH.STUDYID" Name="STUDYID" DataType="text" Length="8">
<Description><TranslatedText>STUDYID</TranslatedText></Description>
<def:Origin Type="Assigned">
<Description><TranslatedText>Assigned according to the study convention.</TranslatedText></Description>
        </def:Origin>
      </ItemDef>
<ItemDef OID="IT.MH.USUBJID" Name="USUBJID" DataType="text" Length="40">
<Description><TranslatedText>USUBJID</TranslatedText></Description>
<def:Origin Type="Derived">
<Description><TranslatedText>Derived from the source EDC extract by the versioned SDTM program.</TranslatedText></Description>
        </def:Origin>
      </ItemDef>
<ItemDef OID="IT.SV.DOMAIN" Name="DOMAIN" DataType="text" Length="2">
<Description><TranslatedText>DOMAIN</TranslatedText></Description>
<def:Origin Type="Assigned">
<Description><TranslatedText>Assigned according to the study convention.</TranslatedText></Description>
        </def:Origin>
      </ItemDef>
<ItemDef OID="IT.SV.STUDYID" Name="STUDYID" DataType="text" Length="8">
<Description><TranslatedText>STUDYID</TranslatedText></Description>
<def:Origin Type="Assigned">
<Description><TranslatedText>Assigned according to the study convention.</TranslatedText></Description>
        </def:Origin>
      </ItemDef>
<ItemDef OID="IT.SV.SVENDTC" Name="SVENDTC" DataType="text" Length="10">
<Description><TranslatedText>SVENDTC</TranslatedText></Description>
<def:Origin Type="Derived">
<Description><TranslatedText>Derived from the source EDC extract by the versioned SDTM program.</TranslatedText></Description>
        </def:Origin>
      </ItemDef>
<ItemDef OID="IT.SV.SVSTDTC" Name="SVSTDTC" DataType="text" Length="10">
<Description><TranslatedText>SVSTDTC</TranslatedText></Description>
<def:Origin Type="Derived">
<Description><TranslatedText>Derived from the source EDC extract by the versioned SDTM program.</TranslatedText></Description>
        </def:Origin>
      </ItemDef>
<ItemDef OID="IT.SV.USUBJID" Name="USUBJID" DataType="text" Length="40">
<Description><TranslatedText>USUBJID</TranslatedText></Description>
<def:Origin Type="Derived">
<Description><TranslatedText>Derived from the source EDC extract by the versioned SDTM program.</TranslatedText></Description>
        </def:Origin>
      </ItemDef>
<ItemDef OID="IT.SV.VISIT" Name="VISIT" DataType="text" Length="40">
<Description><TranslatedText>VISIT</TranslatedText></Description>
<def:Origin Type="Derived">
<Description><TranslatedText>Derived from the source EDC extract by the versioned SDTM program.</TranslatedText></Description>
        </def:Origin>
      </ItemDef>
<ItemDef OID="IT.SV.VISITDY" Name="VISITDY" DataType="integer" Length="8">
<Description><TranslatedText>VISITDY</TranslatedText></Description>
<def:Origin Type="Derived">
<Description><TranslatedText>Derived from the source EDC extract by the versioned SDTM program.</TranslatedText></Description>
        </def:Origin>
      </ItemDef>
<ItemDef OID="IT.SV.VISITNUM" Name="VISITNUM" DataType="float" Length="8">
<Description><TranslatedText>VISITNUM</TranslatedText></Description>
<def:Origin Type="Derived">
<Description><TranslatedText>Derived from the source EDC extract by the versioned SDTM program.</TranslatedText></Description>
        </def:Origin>
      </ItemDef>
<ItemDef OID="IT.VS.DOMAIN" Name="DOMAIN" DataType="text" Length="2">
<Description><TranslatedText>DOMAIN</TranslatedText></Description>
<def:Origin Type="Assigned">
<Description><TranslatedText>Assigned according to the study convention.</TranslatedText></Description>
        </def:Origin>
      </ItemDef>
<ItemDef OID="IT.VS.STUDYID" Name="STUDYID" DataType="text" Length="8">
<Description><TranslatedText>STUDYID</TranslatedText></Description>
<def:Origin Type="Assigned">
<Description><TranslatedText>Assigned according to the study convention.</TranslatedText></Description>
        </def:Origin>
      </ItemDef>
<ItemDef OID="IT.VS.USUBJID" Name="USUBJID" DataType="text" Length="40">
<Description><TranslatedText>USUBJID</TranslatedText></Description>
<def:Origin Type="Derived">
<Description><TranslatedText>Derived from the source EDC extract by the versioned SDTM program.</TranslatedText></Description>
        </def:Origin>
      </ItemDef>
<ItemDef OID="IT.VS.VISIT" Name="VISIT" DataType="text" Length="7">
<Description><TranslatedText>VISIT</TranslatedText></Description>
<def:Origin Type="Derived">
<Description><TranslatedText>Derived from the source EDC extract by the versioned SDTM program.</TranslatedText></Description>
        </def:Origin>
      </ItemDef>
<ItemDef OID="IT.VS.VISITNUM" Name="VISITNUM" DataType="float" Length="8">
<Description><TranslatedText>VISITNUM</TranslatedText></Description>
<def:Origin Type="Derived">
<Description><TranslatedText>Derived from the source EDC extract by the versioned SDTM program.</TranslatedText></Description>
        </def:Origin>
      </ItemDef>
<ItemDef OID="IT.VS.VSDTC" Name="VSDTC" DataType="text" Length="10">
<Description><TranslatedText>VSDTC</TranslatedText></Description>
<def:Origin Type="Derived">
<Description><TranslatedText>Derived from the source EDC extract by the versioned SDTM program.</TranslatedText></Description>
        </def:Origin>
      </ItemDef>
<ItemDef OID="IT.VS.VSORRES" Name="VSORRES" DataType="text" Length="200">
<Description><TranslatedText>VSORRES</TranslatedText></Description>
<def:Origin Type="Derived">
<Description><TranslatedText>Derived from the source EDC extract by the versioned SDTM program.</TranslatedText></Description>
        </def:Origin>
      </ItemDef>
<ItemDef OID="IT.VS.VSORRESU" Name="VSORRESU" DataType="text" Length="20">
<Description><TranslatedText>VSORRESU</TranslatedText></Description>
<def:Origin Type="Derived">
<Description><TranslatedText>Derived from the source EDC extract by the versioned SDTM program.</TranslatedText></Description>
        </def:Origin>
      </ItemDef>
<ItemDef OID="IT.VS.VSSEQ" Name="VSSEQ" DataType="integer" Length="8">
<Description><TranslatedText>VSSEQ</TranslatedText></Description>
<def:Origin Type="Derived">
<Description><TranslatedText>Derived from the source EDC extract by the versioned SDTM program.</TranslatedText></Description>
        </def:Origin>
      </ItemDef>
<ItemDef OID="IT.VS.VSSTRESN" Name="VSSTRESN" DataType="float" Length="8">
<Description><TranslatedText>VSSTRESN</TranslatedText></Description>
<def:Origin Type="Derived">
<Description><TranslatedText>Derived from the source EDC extract by the versioned SDTM program.</TranslatedText></Description>
        </def:Origin>
      </ItemDef>
<ItemDef OID="IT.VS.VSSTRESU" Name="VSSTRESU" DataType="text" Length="20">
<Description><TranslatedText>VSSTRESU</TranslatedText></Description>
<def:Origin Type="Derived">
<Description><TranslatedText>Derived from the source EDC extract by the versioned SDTM program.</TranslatedText></Description>
        </def:Origin>
      </ItemDef>
<ItemDef OID="IT.VS.VSTEST" Name="VSTEST" DataType="text" Length="40">
<Description><TranslatedText>VSTEST</TranslatedText></Description>
<def:Origin Type="Derived">
<Description><TranslatedText>Derived from the source EDC extract by the versioned SDTM program.</TranslatedText></Description>
        </def:Origin>
      </ItemDef>
<ItemDef OID="IT.VS.VSTESTCD" Name="VSTESTCD" DataType="text" Length="8">
<Description><TranslatedText>VSTESTCD</TranslatedText></Description>
<def:Origin Type="Derived">
<Description><TranslatedText>Derived from the source EDC extract by the versioned SDTM program.</TranslatedText></Description>
        </def:Origin>
      </ItemDef>
      <CodeList OID="CL.SEX" Name="Sex" DataType="text">
        <CodeListItem CodedValue="M"><Decode><TranslatedText>Male</TranslatedText></Decode></CodeListItem>
        <CodeListItem CodedValue="F"><Decode><TranslatedText>Female</TranslatedText></Decode></CodeListItem>
        <CodeListItem CodedValue="U"><Decode><TranslatedText>Unknown</TranslatedText></Decode></CodeListItem>
      </CodeList>
      <CodeList OID="CL.RACE" Name="Race" DataType="text">
        <CodeListItem CodedValue="WHITE"/>
        <CodeListItem CodedValue="BLACK OR AFRICAN AMERICAN"/>
        <CodeListItem CodedValue="ASIAN"/>
        <CodeListItem CodedValue="OTHER"/>
        <CodeListItem CodedValue="UNKNOWN"/>
      </CodeList>
      <CodeList OID="CL.YN" Name="Yes No" DataType="text">
        <CodeListItem CodedValue="Y"><Decode><TranslatedText>Yes</TranslatedText></Decode></CodeListItem>
        <CodeListItem CodedValue="N"><Decode><TranslatedText>No</TranslatedText></Decode></CodeListItem>
      </CodeList>
      <CodeList OID="CL.Y" Name="Yes Flag" DataType="text">
        <CodeListItem CodedValue="Y"><Decode><TranslatedText>Yes</TranslatedText></Decode></CodeListItem>
      </CodeList>
      <CodeList OID="CL.AESEV" Name="Adverse Event Severity" DataType="text">
        <CodeListItem CodedValue="MILD"/><CodeListItem CodedValue="MODERATE"/><CodeListItem CodedValue="SEVERE"/>
      </CodeList>
      <CodeList OID="CL.AEREL" Name="Adverse Event Relationship" DataType="text">
        <CodeListItem CodedValue="RELATED"/><CodeListItem CodedValue="NOT RELATED"/><CodeListItem CodedValue="UNKNOWN"/>
      </CodeList>
      <CodeList OID="CL.AEOUT" Name="Adverse Event Outcome" DataType="text">
        <CodeListItem CodedValue="RECOVERED/RESOLVED"/><CodeListItem CodedValue="NOT RECOVERED/NOT RESOLVED"/>
      </CodeList>
      <CodeList OID="CL.LBNRIND" Name="Reference Range Indicator" DataType="text">
        <CodeListItem CodedValue="LOW"/><CodeListItem CodedValue="NORMAL"/><CodeListItem CodedValue="HIGH"/><CodeListItem CodedValue="UNKNOWN"/>
      </CodeList>
      <CodeList OID="CL.CNSR" Name="Censoring" DataType="integer">
        <CodeListItem CodedValue="0"><Decode><TranslatedText>Event</TranslatedText></Decode></CodeListItem>
        <CodeListItem CodedValue="1"><Decode><TranslatedText>Censored</TranslatedText></Decode></CodeListItem>
      </CodeList>
      <CodeList OID="CL.STENRF" Name="Start End Relative to Reference Time Point" DataType="text">
        <CodeListItem CodedValue="ONGOING"><Decode><TranslatedText>Ongoing</TranslatedText></Decode></CodeListItem>
      </CodeList>
      <MethodDef OID="MT.DM.USUBJID" Name="Unique Subject Identifier" Type="Computation"><Description><TranslatedText>Concatenate STUDYID and SUBJID with a hyphen.</TranslatedText></Description></MethodDef>
      <MethodDef OID="MT.DM.SITEID" Name="Site Identifier" Type="Computation"><Description><TranslatedText>Copy SITE from the raw demographic record after type-safe character conversion.</TranslatedText></Description></MethodDef>
      <MethodDef OID="MT.DM.RACE" Name="Race Terminology Mapping" Type="Computation"><Description><TranslatedText>Map the EDC race label to the supported CDISC controlled term.</TranslatedText></Description></MethodDef>
      <MethodDef OID="MT.CM.CMDECOD" Name="Medication Normalization" Type="Computation"><Description><TranslatedText>Normalize the approved Paracetamol source synonym to the standard ingredient name Acetaminophen; retain the uppercase source name for the remaining educational dictionary entries.</TranslatedText></Description></MethodDef>
      <MethodDef OID="MT.CM.CMENTPT" Name="Ongoing Medication Assessment Point" Type="Computation"><Description><TranslatedText>For a medication reported as ongoing at the end of subject participation, copy the existing DM.RFENDTC assessment boundary to CMENTPT; this anchors CMENRTPT and does not assert a clinical stop date.</TranslatedText></Description></MethodDef>
      <MethodDef OID="MT.ADSL.TRT01P" Name="Planned Treatment" Type="Computation"><Description><TranslatedText>Derive planned treatment from the randomized arm in DM.</TranslatedText></Description></MethodDef>
      <MethodDef OID="MT.ADSL.TRT01A" Name="Actual Treatment" Type="Computation"><Description><TranslatedText>Derive actual treatment from the first exposure record in EX.</TranslatedText></Description></MethodDef>
      <MethodDef OID="MT.ADSL.ITTFL" Name="Intent-to-Treat Flag" Type="Computation"><Description><TranslatedText>Set to Y for randomized subjects and N for screen failures.</TranslatedText></Description></MethodDef>
      <MethodDef OID="MT.ADSL.SAFFL" Name="Safety Population Flag" Type="Computation"><Description><TranslatedText>Set to Y when at least one exposure start date is present.</TranslatedText></Description></MethodDef>
      <MethodDef OID="MT.ADSL.AGE" Name="Age" Type="Computation"><Description><TranslatedText>Calculate completed years between birth and informed consent using SAS YRDIF with the AGE basis.</TranslatedText></Description></MethodDef>
      <MethodDef OID="MT.ADSL.EOSDT" Name="End of Subject Follow-up" Type="Computation"><Description><TranslatedText>Convert DM.RFPENDTC to a numeric SAS date for participant-specific follow-up and censoring.</TranslatedText></Description></MethodDef>
      <MethodDef OID="MT.ADAE.TRTEMFL" Name="Treatment-Emergent Flag" Type="Computation"><Description><TranslatedText>Set to Y when a safety subject event starts on or after first dose.</TranslatedText></Description></MethodDef>
      <MethodDef OID="MT.ADAE.AOCCFL" Name="First Treatment-Emergent Occurrence" Type="Computation"><Description><TranslatedText>Set to Y on the chronologically first treatment-emergent occurrence per subject and decoded term.</TranslatedText></Description></MethodDef>
      <MethodDef OID="MT.ADVS.BASELINE" Name="Vital Signs Baseline and Change" Type="Computation"><Description><TranslatedText>Select the exact source record with the latest nonmissing value on or before treatment start; same-day ambiguity is rejected by QC when collection time is unavailable.</TranslatedText></Description></MethodDef>
      <MethodDef OID="MT.ADLB.BASELINE" Name="Laboratory Baseline and Change" Type="Computation"><Description><TranslatedText>Select the exact source record with the latest nonmissing value on or before treatment start; same-day ambiguity is rejected by QC when collection time is unavailable.</TranslatedText></Description></MethodDef>
      <MethodDef OID="MT.ADLB.LBNRIND" Name="Laboratory Range Indicator" Type="Computation"><Description><TranslatedText>Classify the standardized analysis value using the parameter-specific reference range.</TranslatedText></Description></MethodDef>
      <MethodDef OID="MT.ADTTE.TTFAEV" Name="Time to First Adverse Event" Type="Computation"><Description><TranslatedText>Calculate inclusive days from treatment start to the first treatment-emergent event; subjects without an event are censored at their participant-specific ADSL.EOSDT derived from DM.RFPENDTC.</TranslatedText></Description></MethodDef>
    </MetaDataVersion>
  </Study>
</ODM>
